n_categories,trial_id,x1_true,x2_true,cat_true,response,accuracy,rt,participant_id
1,0,10,73,1,7,9999,5371,8c03caeaf1558c924da8e23c11d366da
1,1,73,55,1,8,9999,2231,8c03caeaf1558c924da8e23c11d366da
1,2,37,91,1,7,9999,2190,8c03caeaf1558c924da8e23c11d366da
1,3,37,37,1,5,9999,2358,8c03caeaf1558c924da8e23c11d366da
1,4,55,73,1,6,9999,3829,8c03caeaf1558c924da8e23c11d366da
1,5,55,64,1,7,9999,1355,8c03caeaf1558c924da8e23c11d366da
1,6,91,19,1,3,9999,2064,8c03caeaf1558c924da8e23c11d366da
1,7,64,46,1,4,9999,1991,8c03caeaf1558c924da8e23c11d366da
1,8,19,37,1,3,9999,1852,8c03caeaf1558c924da8e23c11d366da
1,9,46,82,1,3,9999,1651,8c03caeaf1558c924da8e23c11d366da
1,10,55,82,1,8,9999,1941,8c03caeaf1558c924da8e23c11d366da
1,11,19,64,1,5,9999,1960,8c03caeaf1558c924da8e23c11d366da
1,12,37,73,1,8,9999,1504,8c03caeaf1558c924da8e23c11d366da
1,13,19,73,1,8,9999,1031,8c03caeaf1558c924da8e23c11d366da
1,14,73,10,1,1,9999,1473,8c03caeaf1558c924da8e23c11d366da
1,15,37,19,1,7,9999,1935,8c03caeaf1558c924da8e23c11d366da
1,16,73,91,1,3,9999,2449,8c03caeaf1558c924da8e23c11d366da
1,17,82,19,1,4,9999,2318,8c03caeaf1558c924da8e23c11d366da
1,18,55,10,1,7,9999,1335,8c03caeaf1558c924da8e23c11d366da
1,19,46,28,1,6,9999,1993,8c03caeaf1558c924da8e23c11d366da
1,20,28,73,1,3,9999,1652,8c03caeaf1558c924da8e23c11d366da
1,21,82,64,1,7,9999,1523,8c03caeaf1558c924da8e23c11d366da
1,22,28,28,1,4,9999,1882,8c03caeaf1558c924da8e23c11d366da
1,23,10,91,1,1,9999,1618,8c03caeaf1558c924da8e23c11d366da
1,24,28,82,1,7,9999,1964,8c03caeaf1558c924da8e23c11d366da
1,25,82,91,1,8,9999,1039,8c03caeaf1558c924da8e23c11d366da
1,26,91,28,1,3,9999,1808,8c03caeaf1558c924da8e23c11d366da
1,27,19,28,1,3,9999,2570,8c03caeaf1558c924da8e23c11d366da
1,28,10,10,1,3,9999,2553,8c03caeaf1558c924da8e23c11d366da
1,29,55,37,1,4,9999,2093,8c03caeaf1558c924da8e23c11d366da
1,30,64,10,1,4,9999,1642,8c03caeaf1558c924da8e23c11d366da
1,31,64,28,1,5,9999,1615,8c03caeaf1558c924da8e23c11d366da
1,32,55,46,1,6,9999,1506,8c03caeaf1558c924da8e23c11d366da
1,33,91,82,1,3,9999,2287,8c03caeaf1558c924da8e23c11d366da
1,34,28,19,1,2,9999,1352,8c03caeaf1558c924da8e23c11d366da
1,35,10,37,1,3,9999,2173,8c03caeaf1558c924da8e23c11d366da
1,36,64,73,1,4,9999,1430,8c03caeaf1558c924da8e23c11d366da
1,37,91,10,1,3,9999,2361,8c03caeaf1558c924da8e23c11d366da
1,38,82,82,1,3,9999,1543,8c03caeaf1558c924da8e23c11d366da
1,39,19,82,1,3,9999,2606,8c03caeaf1558c924da8e23c11d366da
1,40,10,46,1,6,9999,2141,8c03caeaf1558c924da8e23c11d366da
1,41,64,37,1,5,9999,1549,8c03caeaf1558c924da8e23c11d366da
1,42,37,55,1,7,9999,2589,8c03caeaf1558c924da8e23c11d366da
1,43,37,28,1,4,9999,2540,8c03caeaf1558c924da8e23c11d366da
1,44,10,82,1,1,9999,1722,8c03caeaf1558c924da8e23c11d366da
1,45,28,55,1,7,9999,1526,8c03caeaf1558c924da8e23c11d366da
1,46,73,37,1,7,9999,1377,8c03caeaf1558c924da8e23c11d366da
1,47,19,46,1,5,9999,1545,8c03caeaf1558c924da8e23c11d366da
1,48,73,19,1,3,9999,1544,8c03caeaf1558c924da8e23c11d366da
1,49,10,64,1,1,9999,1507,8c03caeaf1558c924da8e23c11d366da
1,50,64,82,1,1,9999,2659,8c03caeaf1558c924da8e23c11d366da
1,51,64,91,1,7,9999,1396,8c03caeaf1558c924da8e23c11d366da
1,52,37,10,1,3,9999,1616,8c03caeaf1558c924da8e23c11d366da
1,53,10,55,1,3,9999,1971,8c03caeaf1558c924da8e23c11d366da
1,54,91,91,1,1,9999,1760,8c03caeaf1558c924da8e23c11d366da
1,55,46,55,1,4,9999,2276,8c03caeaf1558c924da8e23c11d366da
1,56,19,19,1,2,9999,1300,8c03caeaf1558c924da8e23c11d366da
1,57,73,73,1,1,9999,1293,8c03caeaf1558c924da8e23c11d366da
1,58,73,82,1,7,9999,1453,8c03caeaf1558c924da8e23c11d366da
1,59,73,64,1,7,9999,1616,8c03caeaf1558c924da8e23c11d366da
1,60,91,55,1,6,9999,1124,8c03caeaf1558c924da8e23c11d366da
1,61,37,46,1,5,9999,2072,8c03caeaf1558c924da8e23c11d366da
1,62,73,46,1,8,9999,1668,8c03caeaf1558c924da8e23c11d366da
1,63,46,19,1,5,9999,1736,8c03caeaf1558c924da8e23c11d366da
1,64,64,64,1,6,9999,1880,8c03caeaf1558c924da8e23c11d366da
1,65,19,10,1,2,9999,2269,8c03caeaf1558c924da8e23c11d366da
1,66,37,64,1,4,9999,1483,8c03caeaf1558c924da8e23c11d366da
1,67,28,64,1,6,9999,1306,8c03caeaf1558c924da8e23c11d366da
1,68,55,19,1,4,9999,2798,8c03caeaf1558c924da8e23c11d366da
1,69,28,46,1,6,9999,1510,8c03caeaf1558c924da8e23c11d366da
1,70,91,46,1,3,9999,1801,8c03caeaf1558c924da8e23c11d366da
1,71,82,73,1,4,9999,1831,8c03caeaf1558c924da8e23c11d366da
1,72,91,37,1,5,9999,1562,8c03caeaf1558c924da8e23c11d366da
1,73,28,37,1,4,9999,1628,8c03caeaf1558c924da8e23c11d366da
1,74,19,55,1,5,9999,1594,8c03caeaf1558c924da8e23c11d366da
1,75,10,28,1,2,9999,1989,8c03caeaf1558c924da8e23c11d366da
1,76,82,46,1,2,9999,2222,8c03caeaf1558c924da8e23c11d366da
1,77,10,19,1,3,9999,2206,8c03caeaf1558c924da8e23c11d366da
1,78,91,73,1,1,9999,1462,8c03caeaf1558c924da8e23c11d366da
1,79,37,82,1,6,9999,2000,8c03caeaf1558c924da8e23c11d366da
1,80,82,10,1,3,9999,1901,8c03caeaf1558c924da8e23c11d366da
1,81,64,55,1,5,9999,1377,8c03caeaf1558c924da8e23c11d366da
1,82,28,91,1,1,9999,1870,8c03caeaf1558c924da8e23c11d366da
1,83,55,28,1,4,9999,2599,8c03caeaf1558c924da8e23c11d366da
1,84,46,10,1,3,9999,1793,8c03caeaf1558c924da8e23c11d366da
1,85,28,10,1,3,9999,2096,8c03caeaf1558c924da8e23c11d366da
1,86,46,91,1,2,9999,2308,8c03caeaf1558c924da8e23c11d366da
1,87,46,73,1,7,9999,1412,8c03caeaf1558c924da8e23c11d366da
1,88,73,28,1,3,9999,1393,8c03caeaf1558c924da8e23c11d366da
1,89,82,55,1,2,9999,2078,8c03caeaf1558c924da8e23c11d366da
1,90,46,46,1,6,9999,1225,8c03caeaf1558c924da8e23c11d366da
1,91,46,64,1,7,9999,1460,8c03caeaf1558c924da8e23c11d366da
1,92,46,37,1,6,9999,1279,8c03caeaf1558c924da8e23c11d366da
1,93,82,28,1,5,9999,1735,8c03caeaf1558c924da8e23c11d366da
1,94,55,91,1,4,9999,1753,8c03caeaf1558c924da8e23c11d366da
1,95,19,91,1,4,9999,1876,8c03caeaf1558c924da8e23c11d366da
1,96,55,55,1,4,9999,1532,8c03caeaf1558c924da8e23c11d366da
1,97,64,19,1,2,9999,1548,8c03caeaf1558c924da8e23c11d366da
1,98,82,37,1,7,9999,590,8c03caeaf1558c924da8e23c11d366da
1,99,91,64,1,6,9999,1395,8c03caeaf1558c924da8e23c11d366da
1,100,10,91,1,2,9999,1446,8c03caeaf1558c924da8e23c11d366da
1,101,37,19,1,3,9999,1937,8c03caeaf1558c924da8e23c11d366da
1,102,55,64,1,4,9999,1090,8c03caeaf1558c924da8e23c11d366da
1,103,19,55,1,3,9999,1724,8c03caeaf1558c924da8e23c11d366da
1,104,82,91,1,2,9999,1591,8c03caeaf1558c924da8e23c11d366da
1,105,10,73,1,3,9999,1474,8c03caeaf1558c924da8e23c11d366da
1,106,28,37,1,4,9999,1589,8c03caeaf1558c924da8e23c11d366da
1,107,19,10,1,4,9999,1495,8c03caeaf1558c924da8e23c11d366da
1,108,55,19,1,4,9999,1578,8c03caeaf1558c924da8e23c11d366da
1,109,37,28,1,7,9999,1653,8c03caeaf1558c924da8e23c11d366da
1,110,19,64,1,5,9999,1822,8c03caeaf1558c924da8e23c11d366da
1,111,28,10,1,4,9999,1807,8c03caeaf1558c924da8e23c11d366da
1,112,37,64,1,3,9999,1534,8c03caeaf1558c924da8e23c11d366da
1,113,10,55,1,5,9999,1650,8c03caeaf1558c924da8e23c11d366da
1,114,82,10,1,2,9999,1366,8c03caeaf1558c924da8e23c11d366da
1,115,55,28,1,4,9999,1529,8c03caeaf1558c924da8e23c11d366da
1,116,28,91,1,2,9999,1831,8c03caeaf1558c924da8e23c11d366da
1,117,37,46,1,6,9999,1906,8c03caeaf1558c924da8e23c11d366da
1,118,82,46,1,5,9999,1420,8c03caeaf1558c924da8e23c11d366da
1,119,64,46,1,6,9999,1623,8c03caeaf1558c924da8e23c11d366da
1,120,73,10,1,5,9999,1915,8c03caeaf1558c924da8e23c11d366da
1,121,82,19,1,7,9999,1416,8c03caeaf1558c924da8e23c11d366da
1,122,55,55,1,6,9999,1672,8c03caeaf1558c924da8e23c11d366da
1,123,10,37,1,3,9999,1899,8c03caeaf1558c924da8e23c11d366da
1,124,46,91,1,1,9999,1373,8c03caeaf1558c924da8e23c11d366da
1,125,19,46,1,4,9999,2165,8c03caeaf1558c924da8e23c11d366da
1,126,91,64,1,1,9999,1552,8c03caeaf1558c924da8e23c11d366da
1,127,46,28,1,1,9999,1595,8c03caeaf1558c924da8e23c11d366da
1,128,64,55,1,3,9999,1497,8c03caeaf1558c924da8e23c11d366da
1,129,19,82,1,2,9999,1362,8c03caeaf1558c924da8e23c11d366da
1,130,46,73,1,7,9999,1314,8c03caeaf1558c924da8e23c11d366da
1,131,37,82,1,7,9999,1021,8c03caeaf1558c924da8e23c11d366da
1,132,82,28,1,3,9999,1715,8c03caeaf1558c924da8e23c11d366da
1,133,73,73,1,6,9999,1456,8c03caeaf1558c924da8e23c11d366da
1,134,10,10,1,1,9999,1049,8c03caeaf1558c924da8e23c11d366da
1,135,91,73,1,1,9999,1162,8c03caeaf1558c924da8e23c11d366da
1,136,37,37,1,2,9999,1179,8c03caeaf1558c924da8e23c11d366da
1,137,91,19,1,1,9999,1129,8c03caeaf1558c924da8e23c11d366da
1,138,10,64,1,1,9999,1083,8c03caeaf1558c924da8e23c11d366da
1,139,37,55,1,3,9999,1229,8c03caeaf1558c924da8e23c11d366da
1,140,10,46,1,4,9999,1354,8c03caeaf1558c924da8e23c11d366da
1,141,10,28,1,5,9999,1154,8c03caeaf1558c924da8e23c11d366da
1,142,64,64,1,3,9999,1623,8c03caeaf1558c924da8e23c11d366da
1,143,91,91,1,2,9999,1528,8c03caeaf1558c924da8e23c11d366da
1,144,82,55,1,3,9999,1959,8c03caeaf1558c924da8e23c11d366da
1,145,28,55,1,3,9999,1518,8c03caeaf1558c924da8e23c11d366da
1,146,46,37,1,4,9999,1267,8c03caeaf1558c924da8e23c11d366da
1,147,73,37,1,6,9999,1570,8c03caeaf1558c924da8e23c11d366da
1,148,28,19,1,5,9999,2788,8c03caeaf1558c924da8e23c11d366da
1,149,55,82,1,3,9999,1473,8c03caeaf1558c924da8e23c11d366da
1,150,46,64,1,7,9999,2015,8c03caeaf1558c924da8e23c11d366da
1,151,37,10,1,4,9999,1285,8c03caeaf1558c924da8e23c11d366da
1,152,73,55,1,5,9999,1902,8c03caeaf1558c924da8e23c11d366da
1,153,91,55,1,3,9999,1526,8c03caeaf1558c924da8e23c11d366da
1,154,91,37,1,6,9999,1578,8c03caeaf1558c924da8e23c11d366da
1,155,19,28,1,3,9999,2223,8c03caeaf1558c924da8e23c11d366da
1,156,91,82,1,1,9999,1256,8c03caeaf1558c924da8e23c11d366da
1,157,28,64,1,4,9999,2259,8c03caeaf1558c924da8e23c11d366da
1,158,46,19,1,3,9999,1540,8c03caeaf1558c924da8e23c11d366da
1,159,91,28,1,1,9999,1474,8c03caeaf1558c924da8e23c11d366da
1,160,73,82,1,1,9999,1266,8c03caeaf1558c924da8e23c11d366da
1,161,46,82,1,7,9999,1329,8c03caeaf1558c924da8e23c11d366da
1,162,82,37,1,4,9999,1275,8c03caeaf1558c924da8e23c11d366da
1,163,28,46,1,5,9999,1242,8c03caeaf1558c924da8e23c11d366da
1,164,64,37,1,7,9999,1151,8c03caeaf1558c924da8e23c11d366da
1,165,19,19,1,2,9999,1789,8c03caeaf1558c924da8e23c11d366da
1,166,64,73,1,1,9999,930,8c03caeaf1558c924da8e23c11d366da
1,167,55,73,1,3,9999,955,8c03caeaf1558c924da8e23c11d366da
1,168,28,28,1,3,9999,1297,8c03caeaf1558c924da8e23c11d366da
1,169,46,46,1,6,9999,1370,8c03caeaf1558c924da8e23c11d366da
1,170,91,46,1,3,9999,2486,8c03caeaf1558c924da8e23c11d366da
1,171,10,82,1,2,9999,1148,8c03caeaf1558c924da8e23c11d366da
1,172,73,28,1,2,9999,1739,8c03caeaf1558c924da8e23c11d366da
1,173,37,73,1,3,9999,1405,8c03caeaf1558c924da8e23c11d366da
1,174,73,46,1,4,9999,1055,8c03caeaf1558c924da8e23c11d366da
1,175,19,91,1,1,9999,1091,8c03caeaf1558c924da8e23c11d366da
1,176,91,10,1,1,9999,1150,8c03caeaf1558c924da8e23c11d366da
1,177,64,91,1,2,9999,1636,8c03caeaf1558c924da8e23c11d366da
1,178,82,73,1,8,9999,1220,8c03caeaf1558c924da8e23c11d366da
1,179,28,82,1,6,9999,1546,8c03caeaf1558c924da8e23c11d366da
1,180,82,64,1,7,9999,1323,8c03caeaf1558c924da8e23c11d366da
1,181,55,46,1,6,9999,1239,8c03caeaf1558c924da8e23c11d366da
1,182,46,55,1,5,9999,1063,8c03caeaf1558c924da8e23c11d366da
1,183,73,91,1,4,9999,1838,8c03caeaf1558c924da8e23c11d366da
1,184,64,10,1,4,9999,1308,8c03caeaf1558c924da8e23c11d366da
1,185,28,73,1,3,9999,2135,8c03caeaf1558c924da8e23c11d366da
1,186,73,64,1,4,9999,1353,8c03caeaf1558c924da8e23c11d366da
1,187,64,19,1,4,9999,1291,8c03caeaf1558c924da8e23c11d366da
1,188,55,10,1,3,9999,1235,8c03caeaf1558c924da8e23c11d366da
1,189,19,37,1,2,9999,1769,8c03caeaf1558c924da8e23c11d366da
1,190,46,10,1,7,9999,1545,8c03caeaf1558c924da8e23c11d366da
1,191,64,28,1,4,9999,2133,8c03caeaf1558c924da8e23c11d366da
1,192,10,19,1,4,9999,1190,8c03caeaf1558c924da8e23c11d366da
1,193,55,37,1,6,9999,1289,8c03caeaf1558c924da8e23c11d366da
1,194,73,19,1,5,9999,2258,8c03caeaf1558c924da8e23c11d366da
1,195,37,91,1,3,9999,1214,8c03caeaf1558c924da8e23c11d366da
1,196,19,73,1,4,9999,2612,8c03caeaf1558c924da8e23c11d366da
1,197,64,82,1,5,9999,1186,8c03caeaf1558c924da8e23c11d366da
1,198,55,91,1,6,9999,998,8c03caeaf1558c924da8e23c11d366da
1,199,82,82,1,8,9999,1271,8c03caeaf1558c924da8e23c11d366da
1,200,82,28,1,4,9999,1918,8c03caeaf1558c924da8e23c11d366da
1,201,46,46,1,6,9999,1262,8c03caeaf1558c924da8e23c11d366da
1,202,82,73,1,6,9999,1174,8c03caeaf1558c924da8e23c11d366da
1,203,55,19,1,5,9999,1073,8c03caeaf1558c924da8e23c11d366da
1,204,55,91,1,3,9999,1238,8c03caeaf1558c924da8e23c11d366da
1,205,73,91,1,4,9999,1785,8c03caeaf1558c924da8e23c11d366da
1,206,91,28,1,5,9999,1548,8c03caeaf1558c924da8e23c11d366da
1,207,19,55,1,2,9999,1195,8c03caeaf1558c924da8e23c11d366da
1,208,73,64,1,2,9999,1246,8c03caeaf1558c924da8e23c11d366da
1,209,91,10,1,2,9999,1692,8c03caeaf1558c924da8e23c11d366da
1,210,46,19,1,4,9999,1407,8c03caeaf1558c924da8e23c11d366da
1,211,64,64,1,5,9999,1463,8c03caeaf1558c924da8e23c11d366da
1,212,73,37,1,6,9999,1285,8c03caeaf1558c924da8e23c11d366da
1,213,46,64,1,6,9999,1678,8c03caeaf1558c924da8e23c11d366da
1,214,10,82,1,3,9999,1209,8c03caeaf1558c924da8e23c11d366da
1,215,10,28,1,5,9999,1443,8c03caeaf1558c924da8e23c11d366da
1,216,37,55,1,6,9999,1418,8c03caeaf1558c924da8e23c11d366da
1,217,55,55,1,7,9999,1515,8c03caeaf1558c924da8e23c11d366da
1,218,64,82,1,7,9999,1166,8c03caeaf1558c924da8e23c11d366da
1,219,10,64,1,4,9999,1283,8c03caeaf1558c924da8e23c11d366da
1,220,28,37,1,5,9999,2006,8c03caeaf1558c924da8e23c11d366da
1,221,82,64,1,3,9999,1342,8c03caeaf1558c924da8e23c11d366da
1,222,64,19,1,4,9999,1980,8c03caeaf1558c924da8e23c11d366da
1,223,46,37,1,4,9999,1025,8c03caeaf1558c924da8e23c11d366da
1,224,73,10,1,3,9999,1301,8c03caeaf1558c924da8e23c11d366da
1,225,46,91,1,4,9999,1781,8c03caeaf1558c924da8e23c11d366da
1,226,73,55,1,6,9999,1296,8c03caeaf1558c924da8e23c11d366da
1,227,55,82,1,7,9999,1607,8c03caeaf1558c924da8e23c11d366da
1,228,37,73,1,6,9999,3235,8c03caeaf1558c924da8e23c11d366da
1,229,91,55,1,6,9999,1150,8c03caeaf1558c924da8e23c11d366da
1,230,82,46,1,7,9999,1364,8c03caeaf1558c924da8e23c11d366da
1,231,28,91,1,2,9999,1483,8c03caeaf1558c924da8e23c11d366da
1,232,55,46,1,4,9999,1411,8c03caeaf1558c924da8e23c11d366da
1,233,82,37,1,4,9999,1476,8c03caeaf1558c924da8e23c11d366da
1,234,10,46,1,3,9999,2517,8c03caeaf1558c924da8e23c11d366da
1,235,91,46,1,4,9999,2322,8c03caeaf1558c924da8e23c11d366da
1,236,55,64,1,4,9999,2141,8c03caeaf1558c924da8e23c11d366da
1,237,10,73,1,2,9999,1464,8c03caeaf1558c924da8e23c11d366da
1,238,19,91,1,7,9999,1402,8c03caeaf1558c924da8e23c11d366da
1,239,19,37,1,6,9999,1414,8c03caeaf1558c924da8e23c11d366da
1,240,73,73,1,4,9999,1298,8c03caeaf1558c924da8e23c11d366da
1,241,73,46,1,6,9999,1331,8c03caeaf1558c924da8e23c11d366da
1,242,82,55,1,7,9999,1171,8c03caeaf1558c924da8e23c11d366da
1,243,64,10,1,6,9999,1689,8c03caeaf1558c924da8e23c11d366da
1,244,37,91,1,2,9999,1487,8c03caeaf1558c924da8e23c11d366da
1,245,37,46,1,5,9999,1603,8c03caeaf1558c924da8e23c11d366da
1,246,64,91,1,5,9999,1525,8c03caeaf1558c924da8e23c11d366da
1,247,46,10,1,5,9999,2126,8c03caeaf1558c924da8e23c11d366da
1,248,19,64,1,3,9999,1503,8c03caeaf1558c924da8e23c11d366da
1,249,64,73,1,4,9999,1853,8c03caeaf1558c924da8e23c11d366da
1,250,73,19,1,4,9999,1804,8c03caeaf1558c924da8e23c11d366da
1,251,28,64,1,5,9999,1530,8c03caeaf1558c924da8e23c11d366da
1,252,91,37,1,2,9999,1643,8c03caeaf1558c924da8e23c11d366da
1,253,28,46,1,3,9999,1615,8c03caeaf1558c924da8e23c11d366da
1,254,64,37,1,3,9999,1400,8c03caeaf1558c924da8e23c11d366da
1,255,64,28,1,5,9999,1352,8c03caeaf1558c924da8e23c11d366da
1,256,73,28,1,6,9999,1139,8c03caeaf1558c924da8e23c11d366da
1,257,37,19,1,4,9999,2041,8c03caeaf1558c924da8e23c11d366da
1,258,37,82,1,2,9999,1504,8c03caeaf1558c924da8e23c11d366da
1,259,19,73,1,3,9999,1494,8c03caeaf1558c924da8e23c11d366da
1,260,64,55,1,4,9999,1269,8c03caeaf1558c924da8e23c11d366da
1,261,37,64,1,5,9999,1251,8c03caeaf1558c924da8e23c11d366da
1,262,28,28,1,5,9999,1697,8c03caeaf1558c924da8e23c11d366da
1,263,28,82,1,5,9999,1775,8c03caeaf1558c924da8e23c11d366da
1,264,55,37,1,5,9999,1229,8c03caeaf1558c924da8e23c11d366da
1,265,37,37,1,6,9999,1420,8c03caeaf1558c924da8e23c11d366da
1,266,10,19,1,3,9999,1449,8c03caeaf1558c924da8e23c11d366da
1,267,19,82,1,5,9999,1312,8c03caeaf1558c924da8e23c11d366da
1,268,19,10,1,4,9999,1236,8c03caeaf1558c924da8e23c11d366da
1,269,10,10,1,8,9999,1535,8c03caeaf1558c924da8e23c11d366da
1,270,55,73,1,3,9999,1450,8c03caeaf1558c924da8e23c11d366da
1,271,10,91,1,1,9999,1548,8c03caeaf1558c924da8e23c11d366da
1,272,19,28,1,3,9999,1568,8c03caeaf1558c924da8e23c11d366da
1,273,19,19,1,4,9999,1443,8c03caeaf1558c924da8e23c11d366da
1,274,91,64,1,2,9999,1736,8c03caeaf1558c924da8e23c11d366da
1,275,37,10,1,4,9999,1619,8c03caeaf1558c924da8e23c11d366da
1,276,82,10,1,6,9999,1308,8c03caeaf1558c924da8e23c11d366da
1,277,91,19,1,8,9999,1132,8c03caeaf1558c924da8e23c11d366da
1,278,46,73,1,6,9999,1382,8c03caeaf1558c924da8e23c11d366da
1,279,82,91,1,8,9999,1139,8c03caeaf1558c924da8e23c11d366da
1,280,28,55,1,3,9999,1400,8c03caeaf1558c924da8e23c11d366da
1,281,46,82,1,5,9999,1531,8c03caeaf1558c924da8e23c11d366da
1,282,64,46,1,6,9999,1436,8c03caeaf1558c924da8e23c11d366da
1,283,10,37,1,4,9999,1865,8c03caeaf1558c924da8e23c11d366da
1,284,73,82,1,2,9999,1626,8c03caeaf1558c924da8e23c11d366da
1,285,91,82,1,1,9999,1391,8c03caeaf1558c924da8e23c11d366da
1,286,37,28,1,5,9999,2918,8c03caeaf1558c924da8e23c11d366da
1,287,82,19,1,3,9999,1348,8c03caeaf1558c924da8e23c11d366da
1,288,91,91,1,2,9999,1328,8c03caeaf1558c924da8e23c11d366da
1,289,46,55,1,3,9999,1899,8c03caeaf1558c924da8e23c11d366da
1,290,55,28,1,6,9999,1297,8c03caeaf1558c924da8e23c11d366da
1,291,10,55,1,4,9999,1826,8c03caeaf1558c924da8e23c11d366da
1,292,46,28,1,4,9999,1768,8c03caeaf1558c924da8e23c11d366da
1,293,28,73,1,2,9999,1810,8c03caeaf1558c924da8e23c11d366da
1,294,55,10,1,2,9999,1608,8c03caeaf1558c924da8e23c11d366da
1,295,19,46,1,3,9999,1626,8c03caeaf1558c924da8e23c11d366da
1,296,91,73,1,1,9999,1993,8c03caeaf1558c924da8e23c11d366da
1,297,82,82,1,3,9999,1729,8c03caeaf1558c924da8e23c11d366da
1,298,28,10,1,2,9999,1558,8c03caeaf1558c924da8e23c11d366da
1,299,28,19,1,6,9999,2359,8c03caeaf1558c924da8e23c11d366da
1,300,73,10,1,3,9999,2369,8c03caeaf1558c924da8e23c11d366da
1,301,19,82,1,1,9999,1156,8c03caeaf1558c924da8e23c11d366da
1,302,28,46,1,3,9999,1175,8c03caeaf1558c924da8e23c11d366da
1,303,91,73,1,3,9999,1665,8c03caeaf1558c924da8e23c11d366da
1,304,28,28,1,2,9999,1266,8c03caeaf1558c924da8e23c11d366da
1,305,82,10,1,3,9999,1734,8c03caeaf1558c924da8e23c11d366da
1,306,82,28,1,7,9999,1333,8c03caeaf1558c924da8e23c11d366da
1,307,55,73,1,5,9999,1374,8c03caeaf1558c924da8e23c11d366da
1,308,37,10,1,3,9999,1381,8c03caeaf1558c924da8e23c11d366da
1,309,82,91,1,2,9999,2534,8c03caeaf1558c924da8e23c11d366da
1,310,46,82,1,6,9999,1755,8c03caeaf1558c924da8e23c11d366da
1,311,64,82,1,7,9999,1231,8c03caeaf1558c924da8e23c11d366da
1,312,55,10,1,4,9999,1856,8c03caeaf1558c924da8e23c11d366da
1,313,19,28,1,3,9999,2606,8c03caeaf1558c924da8e23c11d366da
1,314,91,28,1,4,9999,2524,8c03caeaf1558c924da8e23c11d366da
1,315,82,55,1,5,9999,1211,8c03caeaf1558c924da8e23c11d366da
1,316,64,55,1,6,9999,1222,8c03caeaf1558c924da8e23c11d366da
1,317,73,55,1,7,9999,1697,8c03caeaf1558c924da8e23c11d366da
1,318,82,82,1,5,9999,1818,8c03caeaf1558c924da8e23c11d366da
1,319,37,55,1,3,9999,1884,8c03caeaf1558c924da8e23c11d366da
1,320,28,91,1,2,9999,1390,8c03caeaf1558c924da8e23c11d366da
1,321,10,55,1,3,9999,1759,8c03caeaf1558c924da8e23c11d366da
1,322,55,19,1,2,9999,1670,8c03caeaf1558c924da8e23c11d366da
1,323,55,82,1,4,9999,1400,8c03caeaf1558c924da8e23c11d366da
1,324,91,91,1,2,9999,1551,8c03caeaf1558c924da8e23c11d366da
1,325,37,73,1,3,9999,1773,8c03caeaf1558c924da8e23c11d366da
1,326,82,73,1,5,9999,1366,8c03caeaf1558c924da8e23c11d366da
1,327,28,73,1,4,9999,1568,8c03caeaf1558c924da8e23c11d366da
1,328,28,55,1,5,9999,1658,8c03caeaf1558c924da8e23c11d366da
1,329,19,19,1,4,9999,2485,8c03caeaf1558c924da8e23c11d366da
1,330,19,10,1,3,9999,1412,8c03caeaf1558c924da8e23c11d366da
1,331,91,46,1,4,9999,2472,8c03caeaf1558c924da8e23c11d366da
1,332,28,37,1,4,9999,1327,8c03caeaf1558c924da8e23c11d366da
1,333,46,19,1,5,9999,1325,8c03caeaf1558c924da8e23c11d366da
1,334,37,91,1,3,9999,1673,8c03caeaf1558c924da8e23c11d366da
1,335,10,64,1,3,9999,1777,8c03caeaf1558c924da8e23c11d366da
1,336,10,19,1,4,9999,1683,8c03caeaf1558c924da8e23c11d366da
1,337,19,46,1,3,9999,1558,8c03caeaf1558c924da8e23c11d366da
1,338,19,37,1,6,9999,1305,8c03caeaf1558c924da8e23c11d366da
1,339,28,19,1,6,9999,1452,8c03caeaf1558c924da8e23c11d366da
1,340,73,82,1,2,9999,1611,8c03caeaf1558c924da8e23c11d366da
1,341,64,73,1,2,9999,1504,8c03caeaf1558c924da8e23c11d366da
1,342,19,73,1,4,9999,2527,8c03caeaf1558c924da8e23c11d366da
1,343,28,10,1,3,9999,1279,8c03caeaf1558c924da8e23c11d366da
1,344,73,19,1,4,9999,1564,8c03caeaf1558c924da8e23c11d366da
1,345,37,28,1,4,9999,1563,8c03caeaf1558c924da8e23c11d366da
1,346,91,64,1,2,9999,1476,8c03caeaf1558c924da8e23c11d366da
1,347,19,91,1,4,9999,1615,8c03caeaf1558c924da8e23c11d366da
1,348,64,64,1,5,9999,2009,8c03caeaf1558c924da8e23c11d366da
1,349,10,28,1,3,9999,1064,8c03caeaf1558c924da8e23c11d366da
1,350,46,91,1,3,9999,1185,8c03caeaf1558c924da8e23c11d366da
1,351,55,55,1,4,9999,1230,8c03caeaf1558c924da8e23c11d366da
1,352,73,37,1,4,9999,1034,8c03caeaf1558c924da8e23c11d366da
1,353,73,64,1,5,9999,1184,8c03caeaf1558c924da8e23c11d366da
1,354,19,64,1,4,9999,1700,8c03caeaf1558c924da8e23c11d366da
1,355,55,28,1,3,9999,1265,8c03caeaf1558c924da8e23c11d366da
1,356,64,19,1,8,9999,1300,8c03caeaf1558c924da8e23c11d366da
1,357,55,64,1,6,9999,1266,8c03caeaf1558c924da8e23c11d366da
1,358,55,91,1,5,9999,1663,8c03caeaf1558c924da8e23c11d366da
1,359,64,46,1,4,9999,1372,8c03caeaf1558c924da8e23c11d366da
1,360,73,91,1,5,9999,1687,8c03caeaf1558c924da8e23c11d366da
1,361,28,64,1,3,9999,1400,8c03caeaf1558c924da8e23c11d366da
1,362,46,46,1,6,9999,1325,8c03caeaf1558c924da8e23c11d366da
1,363,64,37,1,6,9999,1569,8c03caeaf1558c924da8e23c11d366da
1,364,46,10,1,6,9999,1440,8c03caeaf1558c924da8e23c11d366da
1,365,82,46,1,6,9999,1678,8c03caeaf1558c924da8e23c11d366da
1,366,73,28,1,7,9999,1326,8c03caeaf1558c924da8e23c11d366da
1,367,91,10,1,6,9999,1290,8c03caeaf1558c924da8e23c11d366da
1,368,10,73,1,1,9999,1264,8c03caeaf1558c924da8e23c11d366da
1,369,73,46,1,3,9999,1975,8c03caeaf1558c924da8e23c11d366da
1,370,55,37,1,4,9999,1160,8c03caeaf1558c924da8e23c11d366da
1,371,10,91,1,1,9999,1136,8c03caeaf1558c924da8e23c11d366da
1,372,82,37,1,1,9999,1135,8c03caeaf1558c924da8e23c11d366da
1,373,91,55,1,3,9999,1502,8c03caeaf1558c924da8e23c11d366da
1,374,46,37,1,4,9999,1293,8c03caeaf1558c924da8e23c11d366da
1,375,46,64,1,4,9999,1329,8c03caeaf1558c924da8e23c11d366da
1,376,37,82,1,2,9999,1194,8c03caeaf1558c924da8e23c11d366da
1,377,37,64,1,5,9999,1753,8c03caeaf1558c924da8e23c11d366da
1,378,37,19,1,3,9999,1455,8c03caeaf1558c924da8e23c11d366da
1,379,28,82,1,3,9999,1860,8c03caeaf1558c924da8e23c11d366da
1,380,82,19,1,1,9999,1350,8c03caeaf1558c924da8e23c11d366da
1,381,46,55,1,3,9999,1389,8c03caeaf1558c924da8e23c11d366da
1,382,10,46,1,2,9999,1085,8c03caeaf1558c924da8e23c11d366da
1,383,19,55,1,7,9999,1428,8c03caeaf1558c924da8e23c11d366da
1,384,91,82,1,3,9999,1719,8c03caeaf1558c924da8e23c11d366da
1,385,10,82,1,2,9999,1779,8c03caeaf1558c924da8e23c11d366da
1,386,10,10,1,2,9999,1638,8c03caeaf1558c924da8e23c11d366da
1,387,64,10,1,3,9999,2070,8c03caeaf1558c924da8e23c11d366da
1,388,37,37,1,3,9999,1361,8c03caeaf1558c924da8e23c11d366da
1,389,55,46,1,3,9999,1644,8c03caeaf1558c924da8e23c11d366da
1,390,73,73,1,3,9999,1497,8c03caeaf1558c924da8e23c11d366da
1,391,46,73,1,4,9999,1436,8c03caeaf1558c924da8e23c11d366da
1,392,82,64,1,4,9999,1207,8c03caeaf1558c924da8e23c11d366da
1,393,91,37,1,4,9999,1562,8c03caeaf1558c924da8e23c11d366da
1,394,91,19,1,4,9999,1335,8c03caeaf1558c924da8e23c11d366da
1,395,10,37,1,3,9999,2074,8c03caeaf1558c924da8e23c11d366da
1,396,64,91,1,1,9999,1058,8c03caeaf1558c924da8e23c11d366da
1,397,37,46,1,3,9999,1483,8c03caeaf1558c924da8e23c11d366da
1,398,46,28,1,4,9999,1111,8c03caeaf1558c924da8e23c11d366da
1,399,64,28,1,4,9999,1319,8c03caeaf1558c924da8e23c11d366da
4,0,28,55,2,3,0,8661,2e6b362f7b158dc6274df9f05fa62f4d
4,1,91,73,4,1,0,844,2e6b362f7b158dc6274df9f05fa62f4d
4,2,28,19,1,2,0,3491,2e6b362f7b158dc6274df9f05fa62f4d
4,3,64,28,3,4,0,1575,2e6b362f7b158dc6274df9f05fa62f4d
4,4,10,10,1,3,0,2203,2e6b362f7b158dc6274df9f05fa62f4d
4,5,73,46,3,2,0,2953,2e6b362f7b158dc6274df9f05fa62f4d
4,6,19,19,1,1,1,1194,2e6b362f7b158dc6274df9f05fa62f4d
4,7,46,10,1,2,0,607,2e6b362f7b158dc6274df9f05fa62f4d
4,8,55,10,3,1,0,894,2e6b362f7b158dc6274df9f05fa62f4d
4,9,46,37,1,1,1,981,2e6b362f7b158dc6274df9f05fa62f4d
4,10,37,91,2,1,0,1169,2e6b362f7b158dc6274df9f05fa62f4d
4,11,55,19,3,4,0,2896,2e6b362f7b158dc6274df9f05fa62f4d
4,12,64,82,4,1,0,1395,2e6b362f7b158dc6274df9f05fa62f4d
4,13,10,55,2,4,0,2130,2e6b362f7b158dc6274df9f05fa62f4d
4,14,37,55,2,3,0,2726,2e6b362f7b158dc6274df9f05fa62f4d
4,15,46,28,1,2,0,1163,2e6b362f7b158dc6274df9f05fa62f4d
4,16,64,37,3,3,1,2192,2e6b362f7b158dc6274df9f05fa62f4d
4,17,28,10,1,4,0,3184,2e6b362f7b158dc6274df9f05fa62f4d
4,18,19,28,1,4,0,830,2e6b362f7b158dc6274df9f05fa62f4d
4,19,28,28,1,1,1,740,2e6b362f7b158dc6274df9f05fa62f4d
4,20,73,28,3,3,1,666,2e6b362f7b158dc6274df9f05fa62f4d
4,21,91,64,4,4,1,1306,2e6b362f7b158dc6274df9f05fa62f4d
4,22,28,82,2,1,0,1079,2e6b362f7b158dc6274df9f05fa62f4d
4,23,55,28,3,3,1,1474,2e6b362f7b158dc6274df9f05fa62f4d
4,24,64,73,4,3,0,1882,2e6b362f7b158dc6274df9f05fa62f4d
4,25,10,28,1,1,1,2608,2e6b362f7b158dc6274df9f05fa62f4d
4,26,19,64,2,2,1,680,2e6b362f7b158dc6274df9f05fa62f4d
4,27,73,10,3,4,0,2031,2e6b362f7b158dc6274df9f05fa62f4d
4,28,37,64,2,2,1,3367,2e6b362f7b158dc6274df9f05fa62f4d
4,29,28,73,2,2,1,1262,2e6b362f7b158dc6274df9f05fa62f4d
4,30,37,46,1,2,0,789,2e6b362f7b158dc6274df9f05fa62f4d
4,31,55,73,4,3,0,1062,2e6b362f7b158dc6274df9f05fa62f4d
4,32,46,73,2,4,0,1086,2e6b362f7b158dc6274df9f05fa62f4d
4,33,46,64,2,2,1,1344,2e6b362f7b158dc6274df9f05fa62f4d
4,34,10,46,1,1,1,918,2e6b362f7b158dc6274df9f05fa62f4d
4,35,73,73,4,4,1,1106,2e6b362f7b158dc6274df9f05fa62f4d
4,36,46,55,2,3,0,972,2e6b362f7b158dc6274df9f05fa62f4d
4,37,55,55,4,3,0,1249,2e6b362f7b158dc6274df9f05fa62f4d
4,38,82,73,4,4,1,828,2e6b362f7b158dc6274df9f05fa62f4d
4,39,55,46,3,4,0,987,2e6b362f7b158dc6274df9f05fa62f4d
4,40,82,28,3,4,0,903,2e6b362f7b158dc6274df9f05fa62f4d
4,41,37,37,1,3,0,1007,2e6b362f7b158dc6274df9f05fa62f4d
4,42,10,19,1,1,1,498,2e6b362f7b158dc6274df9f05fa62f4d
4,43,91,91,4,4,1,1420,2e6b362f7b158dc6274df9f05fa62f4d
4,44,37,10,1,2,0,1200,2e6b362f7b158dc6274df9f05fa62f4d
4,45,82,91,4,4,1,924,2e6b362f7b158dc6274df9f05fa62f4d
4,46,19,37,1,1,1,963,2e6b362f7b158dc6274df9f05fa62f4d
4,47,64,64,4,3,0,955,2e6b362f7b158dc6274df9f05fa62f4d
4,48,46,19,1,4,0,1018,2e6b362f7b158dc6274df9f05fa62f4d
4,49,28,46,1,1,1,1443,2e6b362f7b158dc6274df9f05fa62f4d
4,50,28,64,2,1,0,507,2e6b362f7b158dc6274df9f05fa62f4d
4,51,19,73,2,1,0,755,2e6b362f7b158dc6274df9f05fa62f4d
4,52,73,82,4,4,1,967,2e6b362f7b158dc6274df9f05fa62f4d
4,53,82,46,3,4,0,1079,2e6b362f7b158dc6274df9f05fa62f4d
4,54,64,19,3,4,0,912,2e6b362f7b158dc6274df9f05fa62f4d
4,55,10,73,2,1,0,787,2e6b362f7b158dc6274df9f05fa62f4d
4,56,91,19,3,4,0,860,2e6b362f7b158dc6274df9f05fa62f4d
4,57,64,91,4,4,1,682,2e6b362f7b158dc6274df9f05fa62f4d
4,58,55,64,4,3,0,579,2e6b362f7b158dc6274df9f05fa62f4d
4,59,73,91,4,3,0,1082,2e6b362f7b158dc6274df9f05fa62f4d
4,60,10,37,1,1,1,956,2e6b362f7b158dc6274df9f05fa62f4d
4,61,19,46,1,2,0,514,2e6b362f7b158dc6274df9f05fa62f4d
4,62,19,10,1,1,1,523,2e6b362f7b158dc6274df9f05fa62f4d
4,63,82,82,4,3,0,933,2e6b362f7b158dc6274df9f05fa62f4d
4,64,10,64,2,1,0,726,2e6b362f7b158dc6274df9f05fa62f4d
4,65,73,19,3,3,1,2375,2e6b362f7b158dc6274df9f05fa62f4d
4,66,37,82,2,2,1,1768,2e6b362f7b158dc6274df9f05fa62f4d
4,67,55,91,4,2,0,1548,2e6b362f7b158dc6274df9f05fa62f4d
4,68,37,73,2,2,1,1709,2e6b362f7b158dc6274df9f05fa62f4d
4,69,37,28,1,1,1,1245,2e6b362f7b158dc6274df9f05fa62f4d
4,70,46,82,2,2,1,1421,2e6b362f7b158dc6274df9f05fa62f4d
4,71,82,10,3,3,1,1639,2e6b362f7b158dc6274df9f05fa62f4d
4,72,82,64,4,4,1,1315,2e6b362f7b158dc6274df9f05fa62f4d
4,73,82,37,3,3,1,1287,2e6b362f7b158dc6274df9f05fa62f4d
4,74,73,37,3,3,1,1068,2e6b362f7b158dc6274df9f05fa62f4d
4,75,64,10,3,3,1,1062,2e6b362f7b158dc6274df9f05fa62f4d
4,76,46,91,2,4,0,1042,2e6b362f7b158dc6274df9f05fa62f4d
4,77,55,37,3,1,0,1418,2e6b362f7b158dc6274df9f05fa62f4d
4,78,64,55,4,3,0,848,2e6b362f7b158dc6274df9f05fa62f4d
4,79,28,37,1,2,0,1178,2e6b362f7b158dc6274df9f05fa62f4d
4,80,73,64,4,3,0,2730,2e6b362f7b158dc6274df9f05fa62f4d
4,81,91,10,3,4,0,1918,2e6b362f7b158dc6274df9f05fa62f4d
4,82,19,55,2,1,0,1520,2e6b362f7b158dc6274df9f05fa62f4d
4,83,64,46,3,2,0,807,2e6b362f7b158dc6274df9f05fa62f4d
4,84,28,91,2,1,0,1097,2e6b362f7b158dc6274df9f05fa62f4d
4,85,19,91,2,1,0,992,2e6b362f7b158dc6274df9f05fa62f4d
4,86,37,19,1,1,1,1416,2e6b362f7b158dc6274df9f05fa62f4d
4,87,19,82,2,2,1,1226,2e6b362f7b158dc6274df9f05fa62f4d
4,88,10,82,2,2,1,712,2e6b362f7b158dc6274df9f05fa62f4d
4,89,82,55,4,1,0,1038,2e6b362f7b158dc6274df9f05fa62f4d
4,90,55,82,4,2,0,1348,2e6b362f7b158dc6274df9f05fa62f4d
4,91,82,19,3,4,0,1951,2e6b362f7b158dc6274df9f05fa62f4d
4,92,91,37,3,4,0,1351,2e6b362f7b158dc6274df9f05fa62f4d
4,93,91,28,3,3,1,1749,2e6b362f7b158dc6274df9f05fa62f4d
4,94,46,46,1,3,0,866,2e6b362f7b158dc6274df9f05fa62f4d
4,95,91,46,3,4,0,1801,2e6b362f7b158dc6274df9f05fa62f4d
4,96,91,55,4,3,0,961,2e6b362f7b158dc6274df9f05fa62f4d
4,97,73,55,4,3,0,1378,2e6b362f7b158dc6274df9f05fa62f4d
4,98,10,91,2,1,0,1243,2e6b362f7b158dc6274df9f05fa62f4d
4,99,91,82,4,2,0,593,2e6b362f7b158dc6274df9f05fa62f4d
4,100,82,37,3,1,0,1473,2e6b362f7b158dc6274df9f05fa62f4d
4,101,10,37,1,1,1,1306,2e6b362f7b158dc6274df9f05fa62f4d
4,102,10,10,1,1,1,881,2e6b362f7b158dc6274df9f05fa62f4d
4,103,28,91,2,2,1,1196,2e6b362f7b158dc6274df9f05fa62f4d
4,104,64,82,4,3,0,1434,2e6b362f7b158dc6274df9f05fa62f4d
4,105,91,64,4,4,1,2478,2e6b362f7b158dc6274df9f05fa62f4d
4,106,28,10,1,1,1,2023,2e6b362f7b158dc6274df9f05fa62f4d
4,107,55,91,4,2,0,2316,2e6b362f7b158dc6274df9f05fa62f4d
4,108,19,10,1,1,1,2027,2e6b362f7b158dc6274df9f05fa62f4d
4,109,28,37,1,2,0,1195,2e6b362f7b158dc6274df9f05fa62f4d
4,110,73,37,3,1,0,1272,2e6b362f7b158dc6274df9f05fa62f4d
4,111,10,55,2,1,0,1201,2e6b362f7b158dc6274df9f05fa62f4d
4,112,73,55,4,3,0,1515,2e6b362f7b158dc6274df9f05fa62f4d
4,113,73,91,4,2,0,1689,2e6b362f7b158dc6274df9f05fa62f4d
4,114,19,91,2,2,1,1225,2e6b362f7b158dc6274df9f05fa62f4d
4,115,10,46,1,1,1,1211,2e6b362f7b158dc6274df9f05fa62f4d
4,116,55,82,4,3,0,1884,2e6b362f7b158dc6274df9f05fa62f4d
4,117,19,19,1,1,1,1149,2e6b362f7b158dc6274df9f05fa62f4d
4,118,55,37,3,3,1,1808,2e6b362f7b158dc6274df9f05fa62f4d
4,119,55,55,4,3,0,1192,2e6b362f7b158dc6274df9f05fa62f4d
4,120,28,55,2,1,0,1420,2e6b362f7b158dc6274df9f05fa62f4d
4,121,37,82,2,2,1,1114,2e6b362f7b158dc6274df9f05fa62f4d
4,122,73,46,3,3,1,1913,2e6b362f7b158dc6274df9f05fa62f4d
4,123,19,37,1,1,1,1605,2e6b362f7b158dc6274df9f05fa62f4d
4,124,64,28,3,3,1,1459,2e6b362f7b158dc6274df9f05fa62f4d
4,125,46,19,1,3,0,1253,2e6b362f7b158dc6274df9f05fa62f4d
4,126,82,19,3,4,0,1869,2e6b362f7b158dc6274df9f05fa62f4d
4,127,82,91,4,4,1,2181,2e6b362f7b158dc6274df9f05fa62f4d
4,128,46,91,2,2,1,1626,2e6b362f7b158dc6274df9f05fa62f4d
4,129,28,46,1,1,1,1433,2e6b362f7b158dc6274df9f05fa62f4d
4,130,46,82,2,1,0,1262,2e6b362f7b158dc6274df9f05fa62f4d
4,131,64,55,4,1,0,1116,2e6b362f7b158dc6274df9f05fa62f4d
4,132,64,10,3,1,0,1611,2e6b362f7b158dc6274df9f05fa62f4d
4,133,91,37,3,3,1,2069,2e6b362f7b158dc6274df9f05fa62f4d
4,134,37,19,1,1,1,1523,2e6b362f7b158dc6274df9f05fa62f4d
4,135,73,19,3,4,0,1245,2e6b362f7b158dc6274df9f05fa62f4d
4,136,37,64,2,2,1,1411,2e6b362f7b158dc6274df9f05fa62f4d
4,137,64,73,4,2,0,1103,2e6b362f7b158dc6274df9f05fa62f4d
4,138,91,19,3,1,0,1854,2e6b362f7b158dc6274df9f05fa62f4d
4,139,10,91,2,2,1,1367,2e6b362f7b158dc6274df9f05fa62f4d
4,140,73,28,3,3,1,2418,2e6b362f7b158dc6274df9f05fa62f4d
4,141,10,64,2,2,1,1622,2e6b362f7b158dc6274df9f05fa62f4d
4,142,37,28,1,1,1,957,2e6b362f7b158dc6274df9f05fa62f4d
4,143,73,82,4,2,0,1735,2e6b362f7b158dc6274df9f05fa62f4d
4,144,82,46,3,3,1,2560,2e6b362f7b158dc6274df9f05fa62f4d
4,145,64,37,3,3,1,857,2e6b362f7b158dc6274df9f05fa62f4d
4,146,55,73,4,1,0,1157,2e6b362f7b158dc6274df9f05fa62f4d
4,147,46,46,1,1,1,1466,2e6b362f7b158dc6274df9f05fa62f4d
4,148,19,28,1,1,1,984,2e6b362f7b158dc6274df9f05fa62f4d
4,149,82,10,3,3,1,1350,2e6b362f7b158dc6274df9f05fa62f4d
4,150,82,64,4,4,1,1913,2e6b362f7b158dc6274df9f05fa62f4d
4,151,91,91,4,4,1,1294,2e6b362f7b158dc6274df9f05fa62f4d
4,152,19,82,2,2,1,899,2e6b362f7b158dc6274df9f05fa62f4d
4,153,19,73,2,2,1,987,2e6b362f7b158dc6274df9f05fa62f4d
4,154,10,28,1,1,1,1386,2e6b362f7b158dc6274df9f05fa62f4d
4,155,28,82,2,2,1,1257,2e6b362f7b158dc6274df9f05fa62f4d
4,156,46,28,1,1,1,1589,2e6b362f7b158dc6274df9f05fa62f4d
4,157,19,64,2,2,1,971,2e6b362f7b158dc6274df9f05fa62f4d
4,158,37,10,1,1,1,1107,2e6b362f7b158dc6274df9f05fa62f4d
4,159,82,28,3,3,1,1187,2e6b362f7b158dc6274df9f05fa62f4d
4,160,91,10,3,3,1,1832,2e6b362f7b158dc6274df9f05fa62f4d
4,161,64,46,3,3,1,2019,2e6b362f7b158dc6274df9f05fa62f4d
4,162,37,46,1,3,0,1313,2e6b362f7b158dc6274df9f05fa62f4d
4,163,73,64,4,2,0,1742,2e6b362f7b158dc6274df9f05fa62f4d
4,164,28,19,1,1,1,1335,2e6b362f7b158dc6274df9f05fa62f4d
4,165,37,91,2,2,1,1216,2e6b362f7b158dc6274df9f05fa62f4d
4,166,37,37,1,1,1,1631,2e6b362f7b158dc6274df9f05fa62f4d
4,167,91,73,4,3,0,1321,2e6b362f7b158dc6274df9f05fa62f4d
4,168,10,19,1,1,1,923,2e6b362f7b158dc6274df9f05fa62f4d
4,169,37,55,2,3,0,2063,2e6b362f7b158dc6274df9f05fa62f4d
4,170,91,28,3,3,1,1995,2e6b362f7b158dc6274df9f05fa62f4d
4,171,64,64,4,2,0,1036,2e6b362f7b158dc6274df9f05fa62f4d
4,172,46,55,2,2,1,1738,2e6b362f7b158dc6274df9f05fa62f4d
4,173,73,10,3,1,0,894,2e6b362f7b158dc6274df9f05fa62f4d
4,174,91,82,4,3,0,1253,2e6b362f7b158dc6274df9f05fa62f4d
4,175,46,64,2,2,1,1429,2e6b362f7b158dc6274df9f05fa62f4d
4,176,55,46,3,3,1,1630,2e6b362f7b158dc6274df9f05fa62f4d
4,177,28,28,1,1,1,913,2e6b362f7b158dc6274df9f05fa62f4d
4,178,64,91,4,2,0,1364,2e6b362f7b158dc6274df9f05fa62f4d
4,179,55,19,3,1,0,1038,2e6b362f7b158dc6274df9f05fa62f4d
4,180,91,55,4,3,0,1210,2e6b362f7b158dc6274df9f05fa62f4d
4,181,46,73,2,2,1,1117,2e6b362f7b158dc6274df9f05fa62f4d
4,182,82,73,4,2,0,1214,2e6b362f7b158dc6274df9f05fa62f4d
4,183,82,55,4,4,1,1708,2e6b362f7b158dc6274df9f05fa62f4d
4,184,19,46,1,1,1,1406,2e6b362f7b158dc6274df9f05fa62f4d
4,185,46,10,1,1,1,939,2e6b362f7b158dc6274df9f05fa62f4d
4,186,19,55,2,1,0,1369,2e6b362f7b158dc6274df9f05fa62f4d
4,187,55,28,3,1,0,850,2e6b362f7b158dc6274df9f05fa62f4d
4,188,64,19,3,1,0,949,2e6b362f7b158dc6274df9f05fa62f4d
4,189,55,10,3,1,0,1000,2e6b362f7b158dc6274df9f05fa62f4d
4,190,10,82,2,2,1,1072,2e6b362f7b158dc6274df9f05fa62f4d
4,191,28,73,2,2,1,873,2e6b362f7b158dc6274df9f05fa62f4d
4,192,10,73,2,2,1,766,2e6b362f7b158dc6274df9f05fa62f4d
4,193,73,73,4,4,1,1661,2e6b362f7b158dc6274df9f05fa62f4d
4,194,28,64,2,2,1,1612,2e6b362f7b158dc6274df9f05fa62f4d
4,195,46,37,1,3,0,1475,2e6b362f7b158dc6274df9f05fa62f4d
4,196,91,46,3,4,0,1981,2e6b362f7b158dc6274df9f05fa62f4d
4,197,82,82,4,4,1,2177,2e6b362f7b158dc6274df9f05fa62f4d
4,198,55,64,4,3,0,1102,2e6b362f7b158dc6274df9f05fa62f4d
4,199,37,73,2,2,1,1408,2e6b362f7b158dc6274df9f05fa62f4d
4,200,19,28,1,1,1,972,2e6b362f7b158dc6274df9f05fa62f4d
4,201,55,19,3,1,0,716,2e6b362f7b158dc6274df9f05fa62f4d
4,202,55,46,3,3,1,1734,2e6b362f7b158dc6274df9f05fa62f4d
4,203,19,46,1,3,0,1716,2e6b362f7b158dc6274df9f05fa62f4d
4,204,64,73,4,4,1,1754,2e6b362f7b158dc6274df9f05fa62f4d
4,205,91,37,3,3,1,1448,2e6b362f7b158dc6274df9f05fa62f4d
4,206,37,91,2,2,1,1492,2e6b362f7b158dc6274df9f05fa62f4d
4,207,19,10,1,1,1,843,2e6b362f7b158dc6274df9f05fa62f4d
4,208,91,19,3,3,1,1481,2e6b362f7b158dc6274df9f05fa62f4d
4,209,28,73,2,2,1,1146,2e6b362f7b158dc6274df9f05fa62f4d
4,210,37,46,1,2,0,1699,2e6b362f7b158dc6274df9f05fa62f4d
4,211,10,55,2,2,1,1209,2e6b362f7b158dc6274df9f05fa62f4d
4,212,10,10,1,1,1,906,2e6b362f7b158dc6274df9f05fa62f4d
4,213,37,19,1,1,1,1566,2e6b362f7b158dc6274df9f05fa62f4d
4,214,19,19,1,1,1,1005,2e6b362f7b158dc6274df9f05fa62f4d
4,215,19,55,2,2,1,1365,2e6b362f7b158dc6274df9f05fa62f4d
4,216,64,19,3,3,1,2227,2e6b362f7b158dc6274df9f05fa62f4d
4,217,73,55,4,3,0,1075,2e6b362f7b158dc6274df9f05fa62f4d
4,218,46,10,1,1,1,699,2e6b362f7b158dc6274df9f05fa62f4d
4,219,28,46,1,2,0,831,2e6b362f7b158dc6274df9f05fa62f4d
4,220,46,91,2,2,1,1281,2e6b362f7b158dc6274df9f05fa62f4d
4,221,28,91,2,4,0,1856,2e6b362f7b158dc6274df9f05fa62f4d
4,222,55,82,4,4,1,1923,2e6b362f7b158dc6274df9f05fa62f4d
4,223,82,28,3,3,1,1511,2e6b362f7b158dc6274df9f05fa62f4d
4,224,37,37,1,3,0,2073,2e6b362f7b158dc6274df9f05fa62f4d
4,225,37,73,2,2,1,1259,2e6b362f7b158dc6274df9f05fa62f4d
4,226,82,37,3,3,1,1379,2e6b362f7b158dc6274df9f05fa62f4d
4,227,55,91,4,4,1,1516,2e6b362f7b158dc6274df9f05fa62f4d
4,228,73,10,3,3,1,1586,2e6b362f7b158dc6274df9f05fa62f4d
4,229,46,37,1,3,0,875,2e6b362f7b158dc6274df9f05fa62f4d
4,230,19,37,1,1,1,1041,2e6b362f7b158dc6274df9f05fa62f4d
4,231,64,10,3,1,0,1055,2e6b362f7b158dc6274df9f05fa62f4d
4,232,91,64,4,4,1,2289,2e6b362f7b158dc6274df9f05fa62f4d
4,233,73,82,4,4,1,987,2e6b362f7b158dc6274df9f05fa62f4d
4,234,82,46,3,3,1,993,2e6b362f7b158dc6274df9f05fa62f4d
4,235,10,73,2,2,1,1066,2e6b362f7b158dc6274df9f05fa62f4d
4,236,82,10,3,3,1,1559,2e6b362f7b158dc6274df9f05fa62f4d
4,237,37,55,2,4,0,2147,2e6b362f7b158dc6274df9f05fa62f4d
4,238,73,19,3,3,1,1124,2e6b362f7b158dc6274df9f05fa62f4d
4,239,64,91,4,2,0,1325,2e6b362f7b158dc6274df9f05fa62f4d
4,240,64,55,4,3,0,1685,2e6b362f7b158dc6274df9f05fa62f4d
4,241,46,55,2,4,0,1511,2e6b362f7b158dc6274df9f05fa62f4d
4,242,64,28,3,2,0,1494,2e6b362f7b158dc6274df9f05fa62f4d
4,243,55,28,3,3,1,959,2e6b362f7b158dc6274df9f05fa62f4d
4,244,46,28,1,3,0,862,2e6b362f7b158dc6274df9f05fa62f4d
4,245,73,64,4,3,0,737,2e6b362f7b158dc6274df9f05fa62f4d
4,246,28,55,2,4,0,1075,2e6b362f7b158dc6274df9f05fa62f4d
4,247,10,37,1,1,1,1646,2e6b362f7b158dc6274df9f05fa62f4d
4,248,64,46,3,3,1,887,2e6b362f7b158dc6274df9f05fa62f4d
4,249,19,64,2,2,1,933,2e6b362f7b158dc6274df9f05fa62f4d
4,250,10,28,1,1,1,829,2e6b362f7b158dc6274df9f05fa62f4d
4,251,10,64,2,2,1,1233,2e6b362f7b158dc6274df9f05fa62f4d
4,252,46,73,2,2,1,993,2e6b362f7b158dc6274df9f05fa62f4d
4,253,19,82,2,2,1,859,2e6b362f7b158dc6274df9f05fa62f4d
4,254,28,28,1,1,1,796,2e6b362f7b158dc6274df9f05fa62f4d
4,255,28,19,1,1,1,766,2e6b362f7b158dc6274df9f05fa62f4d
4,256,73,28,3,3,1,1463,2e6b362f7b158dc6274df9f05fa62f4d
4,257,91,73,4,4,1,1030,2e6b362f7b158dc6274df9f05fa62f4d
4,258,28,82,2,2,1,1053,2e6b362f7b158dc6274df9f05fa62f4d
4,259,28,37,1,3,0,1478,2e6b362f7b158dc6274df9f05fa62f4d
4,260,91,28,3,3,1,1157,2e6b362f7b158dc6274df9f05fa62f4d
4,261,82,55,4,4,1,1606,2e6b362f7b158dc6274df9f05fa62f4d
4,262,55,64,4,4,1,1346,2e6b362f7b158dc6274df9f05fa62f4d
4,263,64,37,3,3,1,1178,2e6b362f7b158dc6274df9f05fa62f4d
4,264,73,37,3,3,1,832,2e6b362f7b158dc6274df9f05fa62f4d
4,265,64,64,4,3,0,686,2e6b362f7b158dc6274df9f05fa62f4d
4,266,82,82,4,4,1,1278,2e6b362f7b158dc6274df9f05fa62f4d
4,267,73,91,4,4,1,1162,2e6b362f7b158dc6274df9f05fa62f4d
4,268,73,73,4,3,0,882,2e6b362f7b158dc6274df9f05fa62f4d
4,269,10,46,1,1,1,1159,2e6b362f7b158dc6274df9f05fa62f4d
4,270,46,64,2,2,1,957,2e6b362f7b158dc6274df9f05fa62f4d
4,271,82,73,4,4,1,1350,2e6b362f7b158dc6274df9f05fa62f4d
4,272,91,55,4,3,0,1271,2e6b362f7b158dc6274df9f05fa62f4d
4,273,64,82,4,4,1,1331,2e6b362f7b158dc6274df9f05fa62f4d
4,274,91,82,4,4,1,1454,2e6b362f7b158dc6274df9f05fa62f4d
4,275,55,73,4,2,0,1730,2e6b362f7b158dc6274df9f05fa62f4d
4,276,73,46,3,3,1,1158,2e6b362f7b158dc6274df9f05fa62f4d
4,277,37,10,1,1,1,1045,2e6b362f7b158dc6274df9f05fa62f4d
4,278,55,10,3,1,0,720,2e6b362f7b158dc6274df9f05fa62f4d
4,279,46,19,1,1,1,783,2e6b362f7b158dc6274df9f05fa62f4d
4,280,37,28,1,1,1,1308,2e6b362f7b158dc6274df9f05fa62f4d
4,281,37,64,2,4,0,1771,2e6b362f7b158dc6274df9f05fa62f4d
4,282,91,91,4,4,1,1067,2e6b362f7b158dc6274df9f05fa62f4d
4,283,91,10,3,3,1,941,2e6b362f7b158dc6274df9f05fa62f4d
4,284,82,19,3,3,1,1021,2e6b362f7b158dc6274df9f05fa62f4d
4,285,19,73,2,2,1,1021,2e6b362f7b158dc6274df9f05fa62f4d
4,286,55,55,4,4,1,1843,2e6b362f7b158dc6274df9f05fa62f4d
4,287,55,37,3,3,1,1926,2e6b362f7b158dc6274df9f05fa62f4d
4,288,82,64,4,2,0,1988,2e6b362f7b158dc6274df9f05fa62f4d
4,289,10,91,2,1,0,1024,2e6b362f7b158dc6274df9f05fa62f4d
4,290,28,64,2,2,1,1202,2e6b362f7b158dc6274df9f05fa62f4d
4,291,46,82,2,2,1,1106,2e6b362f7b158dc6274df9f05fa62f4d
4,292,10,82,2,2,1,896,2e6b362f7b158dc6274df9f05fa62f4d
4,293,91,46,3,3,1,1089,2e6b362f7b158dc6274df9f05fa62f4d
4,294,37,82,2,2,1,1200,2e6b362f7b158dc6274df9f05fa62f4d
4,295,19,91,2,2,1,1281,2e6b362f7b158dc6274df9f05fa62f4d
4,296,46,46,1,1,1,1472,2e6b362f7b158dc6274df9f05fa62f4d
4,297,28,10,1,1,1,829,2e6b362f7b158dc6274df9f05fa62f4d
4,298,82,91,4,4,1,1027,2e6b362f7b158dc6274df9f05fa62f4d
4,299,10,19,1,1,1,1102,2e6b362f7b158dc6274df9f05fa62f4d
4,300,19,91,2,1,0,837,2e6b362f7b158dc6274df9f05fa62f4d
4,301,82,28,3,3,1,1327,2e6b362f7b158dc6274df9f05fa62f4d
4,302,91,37,3,3,1,755,2e6b362f7b158dc6274df9f05fa62f4d
4,303,82,73,4,4,1,1050,2e6b362f7b158dc6274df9f05fa62f4d
4,304,55,55,4,2,0,1243,2e6b362f7b158dc6274df9f05fa62f4d
4,305,46,19,1,3,0,1294,2e6b362f7b158dc6274df9f05fa62f4d
4,306,91,19,3,3,1,1187,2e6b362f7b158dc6274df9f05fa62f4d
4,307,37,82,2,2,1,1068,2e6b362f7b158dc6274df9f05fa62f4d
4,308,46,55,2,2,1,860,2e6b362f7b158dc6274df9f05fa62f4d
4,309,73,46,3,2,0,913,2e6b362f7b158dc6274df9f05fa62f4d
4,310,55,19,3,3,1,1389,2e6b362f7b158dc6274df9f05fa62f4d
4,311,28,10,1,1,1,852,2e6b362f7b158dc6274df9f05fa62f4d
4,312,64,28,3,3,1,1566,2e6b362f7b158dc6274df9f05fa62f4d
4,313,73,10,3,3,1,1147,2e6b362f7b158dc6274df9f05fa62f4d
4,314,73,19,3,3,1,828,2e6b362f7b158dc6274df9f05fa62f4d
4,315,64,73,4,4,1,1212,2e6b362f7b158dc6274df9f05fa62f4d
4,316,19,37,1,2,0,1209,2e6b362f7b158dc6274df9f05fa62f4d
4,317,19,10,1,1,1,740,2e6b362f7b158dc6274df9f05fa62f4d
4,318,28,55,2,2,1,1475,2e6b362f7b158dc6274df9f05fa62f4d
4,319,73,55,4,4,1,1309,2e6b362f7b158dc6274df9f05fa62f4d
4,320,10,64,2,2,1,1114,2e6b362f7b158dc6274df9f05fa62f4d
4,321,91,73,4,4,1,1067,2e6b362f7b158dc6274df9f05fa62f4d
4,322,19,46,1,2,0,1123,2e6b362f7b158dc6274df9f05fa62f4d
4,323,55,46,3,4,0,1813,2e6b362f7b158dc6274df9f05fa62f4d
4,324,55,82,4,4,1,2017,2e6b362f7b158dc6274df9f05fa62f4d
4,325,37,73,2,2,1,1353,2e6b362f7b158dc6274df9f05fa62f4d
4,326,46,91,2,2,1,1216,2e6b362f7b158dc6274df9f05fa62f4d
4,327,10,37,1,1,1,1520,2e6b362f7b158dc6274df9f05fa62f4d
4,328,91,10,3,3,1,839,2e6b362f7b158dc6274df9f05fa62f4d
4,329,91,64,4,4,1,1652,2e6b362f7b158dc6274df9f05fa62f4d
4,330,10,19,1,1,1,1010,2e6b362f7b158dc6274df9f05fa62f4d
4,331,37,28,1,1,1,905,2e6b362f7b158dc6274df9f05fa62f4d
4,332,28,19,1,1,1,799,2e6b362f7b158dc6274df9f05fa62f4d
4,333,28,91,2,2,1,1431,2e6b362f7b158dc6274df9f05fa62f4d
4,334,82,64,4,4,1,1156,2e6b362f7b158dc6274df9f05fa62f4d
4,335,19,64,2,2,1,1031,2e6b362f7b158dc6274df9f05fa62f4d
4,336,28,28,1,1,1,1184,2e6b362f7b158dc6274df9f05fa62f4d
4,337,82,46,3,3,1,1059,2e6b362f7b158dc6274df9f05fa62f4d
4,338,82,55,4,3,0,1125,2e6b362f7b158dc6274df9f05fa62f4d
4,339,10,73,2,2,1,1121,2e6b362f7b158dc6274df9f05fa62f4d
4,340,46,28,1,1,1,1288,2e6b362f7b158dc6274df9f05fa62f4d
4,341,46,37,1,1,1,836,2e6b362f7b158dc6274df9f05fa62f4d
4,342,82,10,3,1,0,745,2e6b362f7b158dc6274df9f05fa62f4d
4,343,64,37,3,3,1,972,2e6b362f7b158dc6274df9f05fa62f4d
4,344,64,91,4,2,0,1789,2e6b362f7b158dc6274df9f05fa62f4d
4,345,19,55,2,2,1,1379,2e6b362f7b158dc6274df9f05fa62f4d
4,346,19,82,2,2,1,910,2e6b362f7b158dc6274df9f05fa62f4d
4,347,19,73,2,2,1,747,2e6b362f7b158dc6274df9f05fa62f4d
4,348,64,19,3,1,0,880,2e6b362f7b158dc6274df9f05fa62f4d
4,349,73,82,4,3,0,1093,2e6b362f7b158dc6274df9f05fa62f4d
4,350,82,37,3,3,1,1478,2e6b362f7b158dc6274df9f05fa62f4d
4,351,64,55,4,3,0,925,2e6b362f7b158dc6274df9f05fa62f4d
4,352,37,64,2,2,1,1243,2e6b362f7b158dc6274df9f05fa62f4d
4,353,55,28,3,3,1,1347,2e6b362f7b158dc6274df9f05fa62f4d
4,354,82,19,3,3,1,1088,2e6b362f7b158dc6274df9f05fa62f4d
4,355,55,73,4,4,1,1529,2e6b362f7b158dc6274df9f05fa62f4d
4,356,37,37,1,1,1,1461,2e6b362f7b158dc6274df9f05fa62f4d
4,357,46,46,1,1,1,1214,2e6b362f7b158dc6274df9f05fa62f4d
4,358,28,37,1,1,1,908,2e6b362f7b158dc6274df9f05fa62f4d
4,359,46,82,2,2,1,918,2e6b362f7b158dc6274df9f05fa62f4d
4,360,46,10,1,1,1,1038,2e6b362f7b158dc6274df9f05fa62f4d
4,361,46,64,2,2,1,1448,2e6b362f7b158dc6274df9f05fa62f4d
4,362,73,28,3,3,1,1157,2e6b362f7b158dc6274df9f05fa62f4d
4,363,37,55,2,4,0,1630,2e6b362f7b158dc6274df9f05fa62f4d
4,364,73,91,4,4,1,1342,2e6b362f7b158dc6274df9f05fa62f4d
4,365,73,64,4,4,1,1107,2e6b362f7b158dc6274df9f05fa62f4d
4,366,64,82,4,4,1,1383,2e6b362f7b158dc6274df9f05fa62f4d
4,367,28,73,2,2,1,1448,2e6b362f7b158dc6274df9f05fa62f4d
4,368,37,19,1,1,1,1215,2e6b362f7b158dc6274df9f05fa62f4d
4,369,73,73,4,4,1,1740,2e6b362f7b158dc6274df9f05fa62f4d
4,370,55,91,4,2,0,1258,2e6b362f7b158dc6274df9f05fa62f4d
4,371,10,28,1,1,1,1032,2e6b362f7b158dc6274df9f05fa62f4d
4,372,37,10,1,1,1,799,2e6b362f7b158dc6274df9f05fa62f4d
4,373,19,19,1,1,1,783,2e6b362f7b158dc6274df9f05fa62f4d
4,374,28,46,1,1,1,1275,2e6b362f7b158dc6274df9f05fa62f4d
4,375,82,91,4,4,1,1280,2e6b362f7b158dc6274df9f05fa62f4d
4,376,10,55,2,2,1,1465,2e6b362f7b158dc6274df9f05fa62f4d
4,377,19,28,1,1,1,874,2e6b362f7b158dc6274df9f05fa62f4d
4,378,10,10,1,1,1,843,2e6b362f7b158dc6274df9f05fa62f4d
4,379,91,91,4,4,1,991,2e6b362f7b158dc6274df9f05fa62f4d
4,380,55,10,3,3,1,1439,2e6b362f7b158dc6274df9f05fa62f4d
4,381,55,37,3,3,1,1414,2e6b362f7b158dc6274df9f05fa62f4d
4,382,55,64,4,2,0,1149,2e6b362f7b158dc6274df9f05fa62f4d
4,383,82,82,4,4,1,1055,2e6b362f7b158dc6274df9f05fa62f4d
4,384,91,55,4,4,1,1386,2e6b362f7b158dc6274df9f05fa62f4d
4,385,91,46,3,3,1,1636,2e6b362f7b158dc6274df9f05fa62f4d
4,386,37,46,1,2,0,951,2e6b362f7b158dc6274df9f05fa62f4d
4,387,28,64,2,2,1,1186,2e6b362f7b158dc6274df9f05fa62f4d
4,388,37,91,2,2,1,1249,2e6b362f7b158dc6274df9f05fa62f4d
4,389,10,82,2,2,1,853,2e6b362f7b158dc6274df9f05fa62f4d
4,390,73,37,3,3,1,1167,2e6b362f7b158dc6274df9f05fa62f4d
4,391,46,73,2,4,0,1102,2e6b362f7b158dc6274df9f05fa62f4d
4,392,10,91,2,2,1,992,2e6b362f7b158dc6274df9f05fa62f4d
4,393,64,10,3,1,0,876,2e6b362f7b158dc6274df9f05fa62f4d
4,394,91,82,4,4,1,1249,2e6b362f7b158dc6274df9f05fa62f4d
4,395,10,46,1,2,0,1399,2e6b362f7b158dc6274df9f05fa62f4d
4,396,28,82,2,2,1,976,2e6b362f7b158dc6274df9f05fa62f4d
4,397,91,28,3,3,1,1206,2e6b362f7b158dc6274df9f05fa62f4d
4,398,64,46,3,3,1,1043,2e6b362f7b158dc6274df9f05fa62f4d
4,399,64,64,4,4,1,1343,2e6b362f7b158dc6274df9f05fa62f4d
4,0,46,10,1,2,0,1142,bfdccadbb2506c7368b79394f783d553
4,1,10,55,2,2,1,1891,bfdccadbb2506c7368b79394f783d553
4,2,28,10,1,1,1,1206,bfdccadbb2506c7368b79394f783d553
4,3,19,55,2,2,1,998,bfdccadbb2506c7368b79394f783d553
4,4,37,46,1,3,0,1424,bfdccadbb2506c7368b79394f783d553
4,5,46,46,1,1,1,1016,bfdccadbb2506c7368b79394f783d553
4,6,28,73,2,1,0,1062,bfdccadbb2506c7368b79394f783d553
4,7,64,82,4,2,0,1276,bfdccadbb2506c7368b79394f783d553
4,8,91,37,3,3,1,1201,bfdccadbb2506c7368b79394f783d553
4,9,28,91,2,2,1,1584,bfdccadbb2506c7368b79394f783d553
4,10,19,73,2,2,1,1213,bfdccadbb2506c7368b79394f783d553
4,11,82,46,3,4,0,1901,bfdccadbb2506c7368b79394f783d553
4,12,37,37,1,1,1,1182,bfdccadbb2506c7368b79394f783d553
4,13,55,10,3,3,1,1676,bfdccadbb2506c7368b79394f783d553
4,14,73,64,4,4,1,1011,bfdccadbb2506c7368b79394f783d553
4,15,19,64,2,2,1,1406,bfdccadbb2506c7368b79394f783d553
4,16,64,46,3,3,1,2239,bfdccadbb2506c7368b79394f783d553
4,17,10,28,1,1,1,1385,bfdccadbb2506c7368b79394f783d553
4,18,28,55,2,1,0,1488,bfdccadbb2506c7368b79394f783d553
4,19,46,73,2,4,0,1553,bfdccadbb2506c7368b79394f783d553
4,20,19,37,1,1,1,1205,bfdccadbb2506c7368b79394f783d553
4,21,10,19,1,1,1,1026,bfdccadbb2506c7368b79394f783d553
4,22,55,46,3,3,1,1895,bfdccadbb2506c7368b79394f783d553
4,23,55,55,4,3,0,1100,bfdccadbb2506c7368b79394f783d553
4,24,91,73,4,4,1,1023,bfdccadbb2506c7368b79394f783d553
4,25,64,10,3,3,1,1809,bfdccadbb2506c7368b79394f783d553
4,26,91,91,4,4,1,1254,bfdccadbb2506c7368b79394f783d553
4,27,37,28,1,1,1,1137,bfdccadbb2506c7368b79394f783d553
4,28,73,46,3,4,0,1827,bfdccadbb2506c7368b79394f783d553
4,29,82,10,3,3,1,1144,bfdccadbb2506c7368b79394f783d553
4,30,82,82,4,4,1,1393,bfdccadbb2506c7368b79394f783d553
4,31,55,64,4,2,0,1165,bfdccadbb2506c7368b79394f783d553
4,32,73,37,3,3,1,1101,bfdccadbb2506c7368b79394f783d553
4,33,82,28,3,3,1,1138,bfdccadbb2506c7368b79394f783d553
4,34,91,82,4,4,1,861,bfdccadbb2506c7368b79394f783d553
4,35,64,64,4,4,1,1583,bfdccadbb2506c7368b79394f783d553
4,36,28,28,1,1,1,1139,bfdccadbb2506c7368b79394f783d553
4,37,55,37,3,1,0,1042,bfdccadbb2506c7368b79394f783d553
4,38,64,37,3,3,1,1775,bfdccadbb2506c7368b79394f783d553
4,39,64,28,3,1,0,1133,bfdccadbb2506c7368b79394f783d553
4,40,82,19,3,3,1,2299,bfdccadbb2506c7368b79394f783d553
4,41,82,73,4,4,1,1554,bfdccadbb2506c7368b79394f783d553
4,42,64,91,4,4,1,1635,bfdccadbb2506c7368b79394f783d553
4,43,10,10,1,1,1,1139,bfdccadbb2506c7368b79394f783d553
4,44,46,64,2,2,1,1124,bfdccadbb2506c7368b79394f783d553
4,45,28,64,2,2,1,1211,bfdccadbb2506c7368b79394f783d553
4,46,73,28,3,3,1,1010,bfdccadbb2506c7368b79394f783d553
4,47,64,73,4,4,1,1618,bfdccadbb2506c7368b79394f783d553
4,48,10,73,2,2,1,1591,bfdccadbb2506c7368b79394f783d553
4,49,91,19,3,3,1,1001,bfdccadbb2506c7368b79394f783d553
4,50,19,82,2,2,1,1649,bfdccadbb2506c7368b79394f783d553
4,51,28,46,1,2,0,1539,bfdccadbb2506c7368b79394f783d553
4,52,46,91,2,2,1,2039,bfdccadbb2506c7368b79394f783d553
4,53,55,73,4,2,0,1712,bfdccadbb2506c7368b79394f783d553
4,54,37,82,2,2,1,1466,bfdccadbb2506c7368b79394f783d553
4,55,37,73,2,2,1,1110,bfdccadbb2506c7368b79394f783d553
4,56,46,82,2,2,1,1410,bfdccadbb2506c7368b79394f783d553
4,57,37,10,1,1,1,1279,bfdccadbb2506c7368b79394f783d553
4,58,28,19,1,1,1,1370,bfdccadbb2506c7368b79394f783d553
4,59,55,19,3,3,1,1571,bfdccadbb2506c7368b79394f783d553
4,60,91,28,3,3,1,1119,bfdccadbb2506c7368b79394f783d553
4,61,37,64,2,2,1,2969,bfdccadbb2506c7368b79394f783d553
4,62,55,28,3,3,1,1501,bfdccadbb2506c7368b79394f783d553
4,63,91,55,4,4,1,1452,bfdccadbb2506c7368b79394f783d553
4,64,19,28,1,1,1,1166,bfdccadbb2506c7368b79394f783d553
4,65,10,82,2,2,1,1181,bfdccadbb2506c7368b79394f783d553
4,66,10,64,2,2,1,1201,bfdccadbb2506c7368b79394f783d553
4,67,82,64,4,4,1,1197,bfdccadbb2506c7368b79394f783d553
4,68,46,19,1,3,0,1668,bfdccadbb2506c7368b79394f783d553
4,69,82,37,3,3,1,1035,bfdccadbb2506c7368b79394f783d553
4,70,10,91,2,2,1,990,bfdccadbb2506c7368b79394f783d553
4,71,37,55,2,4,0,1490,bfdccadbb2506c7368b79394f783d553
4,72,46,37,1,2,0,2721,bfdccadbb2506c7368b79394f783d553
4,73,73,10,3,3,1,1158,bfdccadbb2506c7368b79394f783d553
4,74,91,10,3,3,1,1501,bfdccadbb2506c7368b79394f783d553
4,75,37,19,1,1,1,1374,bfdccadbb2506c7368b79394f783d553
4,76,37,91,2,2,1,1003,bfdccadbb2506c7368b79394f783d553
4,77,82,55,4,4,1,1300,bfdccadbb2506c7368b79394f783d553
4,78,73,91,4,4,1,1153,bfdccadbb2506c7368b79394f783d553
4,79,46,28,1,1,1,1806,bfdccadbb2506c7368b79394f783d553
4,80,19,91,2,2,1,1009,bfdccadbb2506c7368b79394f783d553
4,81,10,37,1,1,1,1008,bfdccadbb2506c7368b79394f783d553
4,82,19,46,1,2,0,1836,bfdccadbb2506c7368b79394f783d553
4,83,19,19,1,1,1,910,bfdccadbb2506c7368b79394f783d553
4,84,19,10,1,1,1,981,bfdccadbb2506c7368b79394f783d553
4,85,55,91,4,4,1,1662,bfdccadbb2506c7368b79394f783d553
4,86,10,46,1,2,0,2344,bfdccadbb2506c7368b79394f783d553
4,87,55,82,4,4,1,1819,bfdccadbb2506c7368b79394f783d553
4,88,73,82,4,4,1,887,bfdccadbb2506c7368b79394f783d553
4,89,64,19,3,3,1,1228,bfdccadbb2506c7368b79394f783d553
4,90,82,91,4,4,1,883,bfdccadbb2506c7368b79394f783d553
4,91,73,55,4,4,1,1664,bfdccadbb2506c7368b79394f783d553
4,92,73,19,3,3,1,1656,bfdccadbb2506c7368b79394f783d553
4,93,64,55,4,4,1,1007,bfdccadbb2506c7368b79394f783d553
4,94,91,64,4,4,1,1058,bfdccadbb2506c7368b79394f783d553
4,95,91,46,3,4,0,1253,bfdccadbb2506c7368b79394f783d553
4,96,28,37,1,1,1,2122,bfdccadbb2506c7368b79394f783d553
4,97,28,82,2,2,1,1318,bfdccadbb2506c7368b79394f783d553
4,98,46,55,2,2,1,1219,bfdccadbb2506c7368b79394f783d553
4,99,73,73,4,4,1,1090,bfdccadbb2506c7368b79394f783d553
4,100,46,28,1,3,0,1137,bfdccadbb2506c7368b79394f783d553
4,101,37,28,1,1,1,852,bfdccadbb2506c7368b79394f783d553
4,102,64,73,4,4,1,1227,bfdccadbb2506c7368b79394f783d553
4,103,91,10,3,3,1,1066,bfdccadbb2506c7368b79394f783d553
4,104,73,28,3,3,1,853,bfdccadbb2506c7368b79394f783d553
4,105,73,46,3,4,0,1109,bfdccadbb2506c7368b79394f783d553
4,106,46,37,1,3,0,1011,bfdccadbb2506c7368b79394f783d553
4,107,19,10,1,1,1,858,bfdccadbb2506c7368b79394f783d553
4,108,91,73,4,4,1,812,bfdccadbb2506c7368b79394f783d553
4,109,82,10,3,3,1,1096,bfdccadbb2506c7368b79394f783d553
4,110,82,37,3,4,0,1048,bfdccadbb2506c7368b79394f783d553
4,111,82,55,4,4,1,1244,bfdccadbb2506c7368b79394f783d553
4,112,28,55,2,2,1,1475,bfdccadbb2506c7368b79394f783d553
4,113,19,46,1,2,0,1324,bfdccadbb2506c7368b79394f783d553
4,114,82,19,3,3,1,1413,bfdccadbb2506c7368b79394f783d553
4,115,64,91,4,4,1,1070,bfdccadbb2506c7368b79394f783d553
4,116,28,46,1,2,0,1396,bfdccadbb2506c7368b79394f783d553
4,117,19,82,2,2,1,1021,bfdccadbb2506c7368b79394f783d553
4,118,91,64,4,4,1,1480,bfdccadbb2506c7368b79394f783d553
4,119,28,19,1,1,1,1097,bfdccadbb2506c7368b79394f783d553
4,120,28,91,2,2,1,1355,bfdccadbb2506c7368b79394f783d553
4,121,91,82,4,4,1,1020,bfdccadbb2506c7368b79394f783d553
4,122,55,91,4,4,1,832,bfdccadbb2506c7368b79394f783d553
4,123,55,37,3,3,1,1083,bfdccadbb2506c7368b79394f783d553
4,124,10,64,2,2,1,1097,bfdccadbb2506c7368b79394f783d553
4,125,19,91,2,2,1,839,bfdccadbb2506c7368b79394f783d553
4,126,73,91,4,4,1,1014,bfdccadbb2506c7368b79394f783d553
4,127,82,28,3,3,1,869,bfdccadbb2506c7368b79394f783d553
4,128,91,19,3,3,1,1154,bfdccadbb2506c7368b79394f783d553
4,129,28,10,1,1,1,1484,bfdccadbb2506c7368b79394f783d553
4,130,10,28,1,1,1,722,bfdccadbb2506c7368b79394f783d553
4,131,91,55,4,4,1,1583,bfdccadbb2506c7368b79394f783d553
4,132,46,73,2,4,0,780,bfdccadbb2506c7368b79394f783d553
4,133,73,19,3,3,1,971,bfdccadbb2506c7368b79394f783d553
4,134,37,37,1,1,1,1571,bfdccadbb2506c7368b79394f783d553
4,135,37,64,2,2,1,834,bfdccadbb2506c7368b79394f783d553
4,136,55,19,3,1,0,1023,bfdccadbb2506c7368b79394f783d553
4,137,73,82,4,4,1,1802,bfdccadbb2506c7368b79394f783d553
4,138,46,91,2,4,0,822,bfdccadbb2506c7368b79394f783d553
4,139,19,28,1,1,1,957,bfdccadbb2506c7368b79394f783d553
4,140,64,10,3,3,1,1686,bfdccadbb2506c7368b79394f783d553
4,141,10,73,2,2,1,1071,bfdccadbb2506c7368b79394f783d553
4,142,82,91,4,4,1,1238,bfdccadbb2506c7368b79394f783d553
4,143,55,73,4,4,1,990,bfdccadbb2506c7368b79394f783d553
4,144,64,46,3,3,1,1193,bfdccadbb2506c7368b79394f783d553
4,145,37,91,2,2,1,1502,bfdccadbb2506c7368b79394f783d553
4,146,28,64,2,2,1,1079,bfdccadbb2506c7368b79394f783d553
4,147,37,10,1,1,1,943,bfdccadbb2506c7368b79394f783d553
4,148,19,37,1,1,1,1655,bfdccadbb2506c7368b79394f783d553
4,149,28,28,1,1,1,1291,bfdccadbb2506c7368b79394f783d553
4,150,37,55,2,2,1,1687,bfdccadbb2506c7368b79394f783d553
4,151,82,82,4,4,1,1228,bfdccadbb2506c7368b79394f783d553
4,152,73,55,4,4,1,1157,bfdccadbb2506c7368b79394f783d553
4,153,46,10,1,3,0,1577,bfdccadbb2506c7368b79394f783d553
4,154,55,46,3,3,1,1285,bfdccadbb2506c7368b79394f783d553
4,155,10,91,2,1,0,1026,bfdccadbb2506c7368b79394f783d553
4,156,73,37,3,3,1,1835,bfdccadbb2506c7368b79394f783d553
4,157,28,37,1,1,1,1839,bfdccadbb2506c7368b79394f783d553
4,158,82,46,3,3,1,1390,bfdccadbb2506c7368b79394f783d553
4,159,64,64,4,4,1,1086,bfdccadbb2506c7368b79394f783d553
4,160,73,64,4,4,1,1202,bfdccadbb2506c7368b79394f783d553
4,161,28,73,2,2,1,1353,bfdccadbb2506c7368b79394f783d553
4,162,82,73,4,4,1,1248,bfdccadbb2506c7368b79394f783d553
4,163,55,55,4,4,1,1158,bfdccadbb2506c7368b79394f783d553
4,164,64,19,3,3,1,1049,bfdccadbb2506c7368b79394f783d553
4,165,28,82,2,2,1,1388,bfdccadbb2506c7368b79394f783d553
4,166,73,73,4,4,1,995,bfdccadbb2506c7368b79394f783d553
4,167,55,10,3,3,1,1384,bfdccadbb2506c7368b79394f783d553
4,168,10,10,1,1,1,1537,bfdccadbb2506c7368b79394f783d553
4,169,46,82,2,2,1,1280,bfdccadbb2506c7368b79394f783d553
4,170,37,82,2,2,1,1394,bfdccadbb2506c7368b79394f783d553
4,171,91,28,3,3,1,1672,bfdccadbb2506c7368b79394f783d553
4,172,64,28,3,3,1,1655,bfdccadbb2506c7368b79394f783d553
4,173,37,19,1,1,1,2444,bfdccadbb2506c7368b79394f783d553
4,174,37,46,1,1,1,1342,bfdccadbb2506c7368b79394f783d553
4,175,37,73,2,2,1,858,bfdccadbb2506c7368b79394f783d553
4,176,10,55,2,2,1,1372,bfdccadbb2506c7368b79394f783d553
4,177,91,37,3,3,1,1091,bfdccadbb2506c7368b79394f783d553
4,178,19,64,2,1,0,1891,bfdccadbb2506c7368b79394f783d553
4,179,64,37,3,3,1,963,bfdccadbb2506c7368b79394f783d553
4,180,55,82,4,4,1,1120,bfdccadbb2506c7368b79394f783d553
4,181,64,55,4,4,1,1152,bfdccadbb2506c7368b79394f783d553
4,182,46,55,2,4,0,1297,bfdccadbb2506c7368b79394f783d553
4,183,19,19,1,1,1,931,bfdccadbb2506c7368b79394f783d553
4,184,19,55,2,2,1,1382,bfdccadbb2506c7368b79394f783d553
4,185,46,19,1,3,0,993,bfdccadbb2506c7368b79394f783d553
4,186,64,82,4,4,1,1151,bfdccadbb2506c7368b79394f783d553
4,187,91,91,4,4,1,1228,bfdccadbb2506c7368b79394f783d553
4,188,10,82,2,1,0,1027,bfdccadbb2506c7368b79394f783d553
4,189,82,64,4,4,1,1249,bfdccadbb2506c7368b79394f783d553
4,190,55,64,4,4,1,870,bfdccadbb2506c7368b79394f783d553
4,191,10,46,1,1,1,1382,bfdccadbb2506c7368b79394f783d553
4,192,46,64,2,2,1,895,bfdccadbb2506c7368b79394f783d553
4,193,91,46,3,3,1,856,bfdccadbb2506c7368b79394f783d553
4,194,19,73,2,2,1,1075,bfdccadbb2506c7368b79394f783d553
4,195,10,19,1,1,1,896,bfdccadbb2506c7368b79394f783d553
4,196,46,46,1,1,1,1236,bfdccadbb2506c7368b79394f783d553
4,197,10,37,1,1,1,778,bfdccadbb2506c7368b79394f783d553
4,198,73,10,3,3,1,1380,bfdccadbb2506c7368b79394f783d553
4,199,55,28,3,3,1,836,bfdccadbb2506c7368b79394f783d553
4,200,64,10,3,3,1,1129,bfdccadbb2506c7368b79394f783d553
4,201,64,64,4,4,1,930,bfdccadbb2506c7368b79394f783d553
4,202,46,55,2,4,0,1321,bfdccadbb2506c7368b79394f783d553
4,203,55,55,4,4,1,1801,bfdccadbb2506c7368b79394f783d553
4,204,10,91,2,1,0,973,bfdccadbb2506c7368b79394f783d553
4,205,19,64,2,2,1,1068,bfdccadbb2506c7368b79394f783d553
4,206,55,10,3,3,1,1413,bfdccadbb2506c7368b79394f783d553
4,207,46,19,1,3,0,1390,bfdccadbb2506c7368b79394f783d553
4,208,73,46,3,3,1,1110,bfdccadbb2506c7368b79394f783d553
4,209,91,46,3,3,1,1567,bfdccadbb2506c7368b79394f783d553
4,210,10,10,1,1,1,1129,bfdccadbb2506c7368b79394f783d553
4,211,73,10,3,3,1,2029,bfdccadbb2506c7368b79394f783d553
4,212,91,28,3,3,1,1146,bfdccadbb2506c7368b79394f783d553
4,213,19,73,2,2,1,1675,bfdccadbb2506c7368b79394f783d553
4,214,19,19,1,1,1,921,bfdccadbb2506c7368b79394f783d553
4,215,37,10,1,1,1,1237,bfdccadbb2506c7368b79394f783d553
4,216,10,28,1,1,1,869,bfdccadbb2506c7368b79394f783d553
4,217,82,37,3,3,1,1758,bfdccadbb2506c7368b79394f783d553
4,218,19,55,2,2,1,1315,bfdccadbb2506c7368b79394f783d553
4,219,55,73,4,4,1,1371,bfdccadbb2506c7368b79394f783d553
4,220,55,46,3,4,0,1319,bfdccadbb2506c7368b79394f783d553
4,221,55,37,3,3,1,1168,bfdccadbb2506c7368b79394f783d553
4,222,46,37,1,3,0,1421,bfdccadbb2506c7368b79394f783d553
4,223,91,19,3,3,1,1455,bfdccadbb2506c7368b79394f783d553
4,224,55,28,3,3,1,939,bfdccadbb2506c7368b79394f783d553
4,225,10,37,1,1,1,1716,bfdccadbb2506c7368b79394f783d553
4,226,28,37,1,1,1,937,bfdccadbb2506c7368b79394f783d553
4,227,46,10,1,3,0,1360,bfdccadbb2506c7368b79394f783d553
4,228,64,91,4,4,1,1022,bfdccadbb2506c7368b79394f783d553
4,229,37,64,2,2,1,1384,bfdccadbb2506c7368b79394f783d553
4,230,28,19,1,1,1,1117,bfdccadbb2506c7368b79394f783d553
4,231,10,55,2,2,1,1269,bfdccadbb2506c7368b79394f783d553
4,232,82,46,3,3,1,1922,bfdccadbb2506c7368b79394f783d553
4,233,82,10,3,3,1,1284,bfdccadbb2506c7368b79394f783d553
4,234,37,19,1,1,1,1212,bfdccadbb2506c7368b79394f783d553
4,235,91,91,4,4,1,952,bfdccadbb2506c7368b79394f783d553
4,236,19,28,1,1,1,1361,bfdccadbb2506c7368b79394f783d553
4,237,73,19,3,3,1,808,bfdccadbb2506c7368b79394f783d553
4,238,10,46,1,2,0,1147,bfdccadbb2506c7368b79394f783d553
4,239,28,28,1,1,1,840,bfdccadbb2506c7368b79394f783d553
4,240,73,55,4,4,1,1800,bfdccadbb2506c7368b79394f783d553
4,241,55,19,3,3,1,1133,bfdccadbb2506c7368b79394f783d553
4,242,46,91,2,4,0,864,bfdccadbb2506c7368b79394f783d553
4,243,37,46,1,1,1,1405,bfdccadbb2506c7368b79394f783d553
4,244,91,64,4,4,1,1013,bfdccadbb2506c7368b79394f783d553
4,245,19,46,1,1,1,1905,bfdccadbb2506c7368b79394f783d553
4,246,46,82,2,2,1,1590,bfdccadbb2506c7368b79394f783d553
4,247,10,19,1,1,1,818,bfdccadbb2506c7368b79394f783d553
4,248,64,28,3,3,1,1369,bfdccadbb2506c7368b79394f783d553
4,249,82,55,4,4,1,2165,bfdccadbb2506c7368b79394f783d553
4,250,28,55,2,2,1,1314,bfdccadbb2506c7368b79394f783d553
4,251,46,73,2,2,1,1610,bfdccadbb2506c7368b79394f783d553
4,252,91,37,3,3,1,839,bfdccadbb2506c7368b79394f783d553
4,253,28,82,2,2,1,886,bfdccadbb2506c7368b79394f783d553
4,254,19,10,1,1,1,778,bfdccadbb2506c7368b79394f783d553
4,255,82,73,4,4,1,990,bfdccadbb2506c7368b79394f783d553
4,256,55,82,4,2,0,1534,bfdccadbb2506c7368b79394f783d553
4,257,91,73,4,4,1,853,bfdccadbb2506c7368b79394f783d553
4,258,46,46,1,2,0,1833,bfdccadbb2506c7368b79394f783d553
4,259,73,91,4,4,1,1697,bfdccadbb2506c7368b79394f783d553
4,260,10,64,2,2,1,1075,bfdccadbb2506c7368b79394f783d553
4,261,64,46,3,3,1,1810,bfdccadbb2506c7368b79394f783d553
4,262,55,64,4,2,0,1781,bfdccadbb2506c7368b79394f783d553
4,263,91,55,4,3,0,1005,bfdccadbb2506c7368b79394f783d553
4,264,10,73,2,2,1,972,bfdccadbb2506c7368b79394f783d553
4,265,19,91,2,2,1,1001,bfdccadbb2506c7368b79394f783d553
4,266,82,19,3,3,1,1532,bfdccadbb2506c7368b79394f783d553
4,267,82,82,4,4,1,1273,bfdccadbb2506c7368b79394f783d553
4,268,28,46,1,2,0,1572,bfdccadbb2506c7368b79394f783d553
4,269,82,64,4,3,0,1616,bfdccadbb2506c7368b79394f783d553
4,270,37,55,2,2,1,1818,bfdccadbb2506c7368b79394f783d553
4,271,82,28,3,3,1,1135,bfdccadbb2506c7368b79394f783d553
4,272,19,37,1,1,1,1453,bfdccadbb2506c7368b79394f783d553
4,273,28,10,1,1,1,1015,bfdccadbb2506c7368b79394f783d553
4,274,28,73,2,2,1,1324,bfdccadbb2506c7368b79394f783d553
4,275,28,91,2,2,1,1243,bfdccadbb2506c7368b79394f783d553
4,276,64,19,3,3,1,1026,bfdccadbb2506c7368b79394f783d553
4,277,64,82,4,4,1,1755,bfdccadbb2506c7368b79394f783d553
4,278,73,28,3,3,1,1953,bfdccadbb2506c7368b79394f783d553
4,279,10,82,2,2,1,1216,bfdccadbb2506c7368b79394f783d553
4,280,37,37,1,3,0,1412,bfdccadbb2506c7368b79394f783d553
4,281,73,82,4,4,1,1067,bfdccadbb2506c7368b79394f783d553
4,282,46,64,2,4,0,1532,bfdccadbb2506c7368b79394f783d553
4,283,64,55,4,4,1,1336,bfdccadbb2506c7368b79394f783d553
4,284,73,37,3,3,1,964,bfdccadbb2506c7368b79394f783d553
4,285,37,91,2,2,1,2374,bfdccadbb2506c7368b79394f783d553
4,286,37,28,1,1,1,839,bfdccadbb2506c7368b79394f783d553
4,287,37,73,2,2,1,1098,bfdccadbb2506c7368b79394f783d553
4,288,28,64,2,2,1,928,bfdccadbb2506c7368b79394f783d553
4,289,73,73,4,4,1,1290,bfdccadbb2506c7368b79394f783d553
4,290,19,82,2,2,1,1346,bfdccadbb2506c7368b79394f783d553
4,291,46,28,1,1,1,1358,bfdccadbb2506c7368b79394f783d553
4,292,73,64,4,3,0,2004,bfdccadbb2506c7368b79394f783d553
4,293,91,10,3,3,1,1203,bfdccadbb2506c7368b79394f783d553
4,294,55,91,4,4,1,1455,bfdccadbb2506c7368b79394f783d553
4,295,91,82,4,4,1,856,bfdccadbb2506c7368b79394f783d553
4,296,37,82,2,2,1,1659,bfdccadbb2506c7368b79394f783d553
4,297,64,73,4,4,1,1214,bfdccadbb2506c7368b79394f783d553
4,298,64,37,3,3,1,1307,bfdccadbb2506c7368b79394f783d553
4,299,82,91,4,4,1,1389,bfdccadbb2506c7368b79394f783d553
4,300,28,46,1,1,1,1747,bfdccadbb2506c7368b79394f783d553
4,301,10,55,2,2,1,1451,bfdccadbb2506c7368b79394f783d553
4,302,64,46,3,3,1,1153,bfdccadbb2506c7368b79394f783d553
4,303,64,19,3,3,1,1578,bfdccadbb2506c7368b79394f783d553
4,304,46,91,2,2,1,2194,bfdccadbb2506c7368b79394f783d553
4,305,82,91,4,4,1,2522,bfdccadbb2506c7368b79394f783d553
4,306,37,28,1,1,1,1360,bfdccadbb2506c7368b79394f783d553
4,307,37,73,2,2,1,877,bfdccadbb2506c7368b79394f783d553
4,308,46,28,1,1,1,2132,bfdccadbb2506c7368b79394f783d553
4,309,73,46,3,3,1,1710,bfdccadbb2506c7368b79394f783d553
4,310,91,37,3,3,1,1151,bfdccadbb2506c7368b79394f783d553
4,311,55,55,4,2,0,2300,bfdccadbb2506c7368b79394f783d553
4,312,19,82,2,2,1,1175,bfdccadbb2506c7368b79394f783d553
4,313,55,10,3,3,1,1450,bfdccadbb2506c7368b79394f783d553
4,314,10,91,2,2,1,1265,bfdccadbb2506c7368b79394f783d553
4,315,73,82,4,4,1,1280,bfdccadbb2506c7368b79394f783d553
4,316,37,55,2,2,1,1949,bfdccadbb2506c7368b79394f783d553
4,317,91,10,3,3,1,950,bfdccadbb2506c7368b79394f783d553
4,318,46,82,2,2,1,1205,bfdccadbb2506c7368b79394f783d553
4,319,64,64,4,4,1,1154,bfdccadbb2506c7368b79394f783d553
4,320,19,55,2,2,1,924,bfdccadbb2506c7368b79394f783d553
4,321,73,10,3,3,1,1279,bfdccadbb2506c7368b79394f783d553
4,322,73,64,4,4,1,1034,bfdccadbb2506c7368b79394f783d553
4,323,82,64,4,4,1,989,bfdccadbb2506c7368b79394f783d553
4,324,10,64,2,1,0,1074,bfdccadbb2506c7368b79394f783d553
4,325,10,37,1,1,1,1015,bfdccadbb2506c7368b79394f783d553
4,326,91,19,3,3,1,815,bfdccadbb2506c7368b79394f783d553
4,327,82,19,3,3,1,970,bfdccadbb2506c7368b79394f783d553
4,328,91,73,4,4,1,892,bfdccadbb2506c7368b79394f783d553
4,329,82,55,4,4,1,782,bfdccadbb2506c7368b79394f783d553
4,330,55,19,3,3,1,1081,bfdccadbb2506c7368b79394f783d553
4,331,73,73,4,4,1,1075,bfdccadbb2506c7368b79394f783d553
4,332,82,28,3,3,1,814,bfdccadbb2506c7368b79394f783d553
4,333,64,91,4,4,1,1105,bfdccadbb2506c7368b79394f783d553
4,334,10,19,1,1,1,1039,bfdccadbb2506c7368b79394f783d553
4,335,55,37,3,3,1,2878,bfdccadbb2506c7368b79394f783d553
4,336,37,91,2,2,1,2003,bfdccadbb2506c7368b79394f783d553
4,337,73,19,3,3,1,845,bfdccadbb2506c7368b79394f783d553
4,338,19,73,2,1,0,1944,bfdccadbb2506c7368b79394f783d553
4,339,28,91,2,2,1,1013,bfdccadbb2506c7368b79394f783d553
4,340,46,55,2,4,0,1722,bfdccadbb2506c7368b79394f783d553
4,341,37,19,1,1,1,1526,bfdccadbb2506c7368b79394f783d553
4,342,91,64,4,4,1,1117,bfdccadbb2506c7368b79394f783d553
4,343,28,73,2,2,1,1584,bfdccadbb2506c7368b79394f783d553
4,344,19,91,2,2,1,1086,bfdccadbb2506c7368b79394f783d553
4,345,55,82,4,4,1,1219,bfdccadbb2506c7368b79394f783d553
4,346,55,64,4,4,1,1279,bfdccadbb2506c7368b79394f783d553
4,347,64,73,4,4,1,843,bfdccadbb2506c7368b79394f783d553
4,348,64,82,4,4,1,783,bfdccadbb2506c7368b79394f783d553
4,349,37,46,1,2,0,1794,bfdccadbb2506c7368b79394f783d553
4,350,28,64,2,2,1,967,bfdccadbb2506c7368b79394f783d553
4,351,19,64,2,2,1,1050,bfdccadbb2506c7368b79394f783d553
4,352,64,37,3,3,1,923,bfdccadbb2506c7368b79394f783d553
4,353,82,37,3,3,1,1141,bfdccadbb2506c7368b79394f783d553
4,354,73,91,4,4,1,1003,bfdccadbb2506c7368b79394f783d553
4,355,91,28,3,3,1,2702,bfdccadbb2506c7368b79394f783d553
4,356,64,10,3,3,1,795,bfdccadbb2506c7368b79394f783d553
4,357,28,82,2,2,1,1390,bfdccadbb2506c7368b79394f783d553
4,358,46,10,1,3,0,2231,bfdccadbb2506c7368b79394f783d553
4,359,46,73,2,2,1,826,bfdccadbb2506c7368b79394f783d553
4,360,28,10,1,1,1,1423,bfdccadbb2506c7368b79394f783d553
4,361,10,82,2,2,1,1067,bfdccadbb2506c7368b79394f783d553
4,362,55,28,3,3,1,1048,bfdccadbb2506c7368b79394f783d553
4,363,82,73,4,4,1,1134,bfdccadbb2506c7368b79394f783d553
4,364,19,37,1,1,1,1769,bfdccadbb2506c7368b79394f783d553
4,365,55,91,4,4,1,2062,bfdccadbb2506c7368b79394f783d553
4,366,46,37,1,1,1,1829,bfdccadbb2506c7368b79394f783d553
4,367,46,46,1,1,1,1736,bfdccadbb2506c7368b79394f783d553
4,368,10,46,1,1,1,1688,bfdccadbb2506c7368b79394f783d553
4,369,10,73,2,2,1,1272,bfdccadbb2506c7368b79394f783d553
4,370,73,37,3,3,1,1091,bfdccadbb2506c7368b79394f783d553
4,371,10,10,1,1,1,1195,bfdccadbb2506c7368b79394f783d553
4,372,82,82,4,4,1,1018,bfdccadbb2506c7368b79394f783d553
4,373,91,91,4,4,1,834,bfdccadbb2506c7368b79394f783d553
4,374,82,10,3,3,1,1035,bfdccadbb2506c7368b79394f783d553
4,375,19,19,1,1,1,1202,bfdccadbb2506c7368b79394f783d553
4,376,91,46,3,3,1,965,bfdccadbb2506c7368b79394f783d553
4,377,46,64,2,2,1,1790,bfdccadbb2506c7368b79394f783d553
4,378,10,28,1,1,1,1141,bfdccadbb2506c7368b79394f783d553
4,379,19,10,1,1,1,773,bfdccadbb2506c7368b79394f783d553
4,380,64,28,3,3,1,1383,bfdccadbb2506c7368b79394f783d553
4,381,73,28,3,3,1,1077,bfdccadbb2506c7368b79394f783d553
4,382,37,82,2,2,1,1589,bfdccadbb2506c7368b79394f783d553
4,383,91,82,4,4,1,1090,bfdccadbb2506c7368b79394f783d553
4,384,19,28,1,1,1,1473,bfdccadbb2506c7368b79394f783d553
4,385,73,55,4,4,1,1211,bfdccadbb2506c7368b79394f783d553
4,386,28,28,1,1,1,2019,bfdccadbb2506c7368b79394f783d553
4,387,46,19,1,3,0,1157,bfdccadbb2506c7368b79394f783d553
4,388,19,46,1,1,1,999,bfdccadbb2506c7368b79394f783d553
4,389,28,55,2,2,1,1060,bfdccadbb2506c7368b79394f783d553
4,390,55,73,4,4,1,1369,bfdccadbb2506c7368b79394f783d553
4,391,82,46,3,3,1,976,bfdccadbb2506c7368b79394f783d553
4,392,37,37,1,1,1,1303,bfdccadbb2506c7368b79394f783d553
4,393,28,19,1,1,1,1049,bfdccadbb2506c7368b79394f783d553
4,394,91,55,4,4,1,1172,bfdccadbb2506c7368b79394f783d553
4,395,37,64,2,1,0,1543,bfdccadbb2506c7368b79394f783d553
4,396,64,55,4,4,1,1055,bfdccadbb2506c7368b79394f783d553
4,397,28,37,1,1,1,1309,bfdccadbb2506c7368b79394f783d553
4,398,37,10,1,1,1,1164,bfdccadbb2506c7368b79394f783d553
4,399,55,46,3,3,1,1093,bfdccadbb2506c7368b79394f783d553
4,0,37,10,1,1,1,824,20304d5f2c6f317f23c3028ada306e08
4,1,64,46,3,2,0,877,20304d5f2c6f317f23c3028ada306e08
4,2,82,91,4,4,1,803,20304d5f2c6f317f23c3028ada306e08
4,3,10,82,2,3,0,1062,20304d5f2c6f317f23c3028ada306e08
4,4,91,64,4,3,0,1553,20304d5f2c6f317f23c3028ada306e08
4,5,55,46,3,4,0,793,20304d5f2c6f317f23c3028ada306e08
4,6,37,73,2,4,0,894,20304d5f2c6f317f23c3028ada306e08
4,7,37,28,1,1,1,759,20304d5f2c6f317f23c3028ada306e08
4,8,55,28,3,1,0,824,20304d5f2c6f317f23c3028ada306e08
4,9,82,64,4,3,0,1410,20304d5f2c6f317f23c3028ada306e08
4,10,64,37,3,3,1,1141,20304d5f2c6f317f23c3028ada306e08
4,11,10,28,1,2,0,904,20304d5f2c6f317f23c3028ada306e08
4,12,10,73,2,1,0,797,20304d5f2c6f317f23c3028ada306e08
4,13,55,91,4,4,1,1129,20304d5f2c6f317f23c3028ada306e08
4,14,10,55,2,2,1,1249,20304d5f2c6f317f23c3028ada306e08
4,15,64,28,3,3,1,1297,20304d5f2c6f317f23c3028ada306e08
4,16,64,55,4,4,1,1455,20304d5f2c6f317f23c3028ada306e08
4,17,19,28,1,1,1,1205,20304d5f2c6f317f23c3028ada306e08
4,18,46,10,1,1,1,1191,20304d5f2c6f317f23c3028ada306e08
4,19,19,73,2,2,1,893,20304d5f2c6f317f23c3028ada306e08
4,20,37,37,1,1,1,1130,20304d5f2c6f317f23c3028ada306e08
4,21,73,73,4,2,0,1003,20304d5f2c6f317f23c3028ada306e08
4,22,28,82,2,2,1,1146,20304d5f2c6f317f23c3028ada306e08
4,23,37,91,2,2,1,822,20304d5f2c6f317f23c3028ada306e08
4,24,55,37,3,1,0,883,20304d5f2c6f317f23c3028ada306e08
4,25,19,19,1,1,1,756,20304d5f2c6f317f23c3028ada306e08
4,26,55,10,3,1,0,922,20304d5f2c6f317f23c3028ada306e08
4,27,46,64,2,4,0,976,20304d5f2c6f317f23c3028ada306e08
4,28,91,82,4,4,1,1034,20304d5f2c6f317f23c3028ada306e08
4,29,10,37,1,1,1,993,20304d5f2c6f317f23c3028ada306e08
4,30,46,19,1,1,1,1052,20304d5f2c6f317f23c3028ada306e08
4,31,73,37,3,3,1,1301,20304d5f2c6f317f23c3028ada306e08
4,32,28,10,1,1,1,704,20304d5f2c6f317f23c3028ada306e08
4,33,28,46,1,2,0,1101,20304d5f2c6f317f23c3028ada306e08
4,34,91,19,3,3,1,1272,20304d5f2c6f317f23c3028ada306e08
4,35,46,73,2,4,0,963,20304d5f2c6f317f23c3028ada306e08
4,36,28,19,1,1,1,855,20304d5f2c6f317f23c3028ada306e08
4,37,82,10,3,3,1,1100,20304d5f2c6f317f23c3028ada306e08
4,38,10,19,1,1,1,719,20304d5f2c6f317f23c3028ada306e08
4,39,28,55,2,2,1,948,20304d5f2c6f317f23c3028ada306e08
4,40,82,28,3,3,1,1096,20304d5f2c6f317f23c3028ada306e08
4,41,55,64,4,4,1,1079,20304d5f2c6f317f23c3028ada306e08
4,42,28,37,1,2,0,1115,20304d5f2c6f317f23c3028ada306e08
4,43,46,55,2,3,0,1090,20304d5f2c6f317f23c3028ada306e08
4,44,19,10,1,1,1,802,20304d5f2c6f317f23c3028ada306e08
4,45,73,55,4,3,0,1370,20304d5f2c6f317f23c3028ada306e08
4,46,46,28,1,3,0,1222,20304d5f2c6f317f23c3028ada306e08
4,47,28,28,1,1,1,772,20304d5f2c6f317f23c3028ada306e08
4,48,19,37,1,1,1,1006,20304d5f2c6f317f23c3028ada306e08
4,49,91,28,3,3,1,976,20304d5f2c6f317f23c3028ada306e08
4,50,28,64,2,2,1,1202,20304d5f2c6f317f23c3028ada306e08
4,51,91,55,4,4,1,1161,20304d5f2c6f317f23c3028ada306e08
4,52,82,73,4,4,1,987,20304d5f2c6f317f23c3028ada306e08
4,53,37,82,2,2,1,1341,20304d5f2c6f317f23c3028ada306e08
4,54,46,37,1,3,0,1231,20304d5f2c6f317f23c3028ada306e08
4,55,28,91,2,2,1,978,20304d5f2c6f317f23c3028ada306e08
4,56,19,46,1,3,0,1105,20304d5f2c6f317f23c3028ada306e08
4,57,73,19,3,3,1,1335,20304d5f2c6f317f23c3028ada306e08
4,58,10,10,1,1,1,940,20304d5f2c6f317f23c3028ada306e08
4,59,46,46,1,3,0,1046,20304d5f2c6f317f23c3028ada306e08
4,60,64,73,4,4,1,1294,20304d5f2c6f317f23c3028ada306e08
4,61,28,73,2,4,0,1066,20304d5f2c6f317f23c3028ada306e08
4,62,37,19,1,1,1,1133,20304d5f2c6f317f23c3028ada306e08
4,63,73,46,3,3,1,1146,20304d5f2c6f317f23c3028ada306e08
4,64,37,64,2,1,0,1959,20304d5f2c6f317f23c3028ada306e08
4,65,73,28,3,3,1,1119,20304d5f2c6f317f23c3028ada306e08
4,66,37,55,2,2,1,1521,20304d5f2c6f317f23c3028ada306e08
4,67,64,82,4,4,1,1278,20304d5f2c6f317f23c3028ada306e08
4,68,46,91,2,4,0,1023,20304d5f2c6f317f23c3028ada306e08
4,69,91,10,3,3,1,1223,20304d5f2c6f317f23c3028ada306e08
4,70,37,46,1,2,0,1423,20304d5f2c6f317f23c3028ada306e08
4,71,46,82,2,2,1,1417,20304d5f2c6f317f23c3028ada306e08
4,72,19,64,2,2,1,1174,20304d5f2c6f317f23c3028ada306e08
4,73,10,46,1,1,1,1133,20304d5f2c6f317f23c3028ada306e08
4,74,10,64,2,2,1,1176,20304d5f2c6f317f23c3028ada306e08
4,75,10,91,2,2,1,1034,20304d5f2c6f317f23c3028ada306e08
4,76,64,19,3,3,1,1034,20304d5f2c6f317f23c3028ada306e08
4,77,82,82,4,4,1,1020,20304d5f2c6f317f23c3028ada306e08
4,78,64,91,4,4,1,833,20304d5f2c6f317f23c3028ada306e08
4,79,64,64,4,3,0,1376,20304d5f2c6f317f23c3028ada306e08
4,80,82,37,3,3,1,915,20304d5f2c6f317f23c3028ada306e08
4,81,55,19,3,3,1,812,20304d5f2c6f317f23c3028ada306e08
4,82,19,55,2,2,1,1014,20304d5f2c6f317f23c3028ada306e08
4,83,91,37,3,3,1,1118,20304d5f2c6f317f23c3028ada306e08
4,84,91,46,3,3,1,851,20304d5f2c6f317f23c3028ada306e08
4,85,91,91,4,4,1,799,20304d5f2c6f317f23c3028ada306e08
4,86,73,91,4,4,1,795,20304d5f2c6f317f23c3028ada306e08
4,87,55,73,4,4,1,1015,20304d5f2c6f317f23c3028ada306e08
4,88,73,64,4,4,1,1037,20304d5f2c6f317f23c3028ada306e08
4,89,19,91,2,2,1,1152,20304d5f2c6f317f23c3028ada306e08
4,90,55,55,4,3,0,1234,20304d5f2c6f317f23c3028ada306e08
4,91,82,46,3,3,1,1125,20304d5f2c6f317f23c3028ada306e08
4,92,19,82,2,2,1,1211,20304d5f2c6f317f23c3028ada306e08
4,93,55,82,4,2,0,912,20304d5f2c6f317f23c3028ada306e08
4,94,82,55,4,3,0,1067,20304d5f2c6f317f23c3028ada306e08
4,95,64,10,3,3,1,1082,20304d5f2c6f317f23c3028ada306e08
4,96,91,73,4,4,1,948,20304d5f2c6f317f23c3028ada306e08
4,97,73,10,3,3,1,871,20304d5f2c6f317f23c3028ada306e08
4,98,73,82,4,4,1,948,20304d5f2c6f317f23c3028ada306e08
4,99,82,19,3,3,1,788,20304d5f2c6f317f23c3028ada306e08
4,100,37,91,2,2,1,1241,20304d5f2c6f317f23c3028ada306e08
4,101,37,28,1,1,1,1144,20304d5f2c6f317f23c3028ada306e08
4,102,46,82,2,2,1,787,20304d5f2c6f317f23c3028ada306e08
4,103,82,73,4,3,0,1066,20304d5f2c6f317f23c3028ada306e08
4,104,73,19,3,3,1,904,20304d5f2c6f317f23c3028ada306e08
4,105,55,55,4,2,0,1389,20304d5f2c6f317f23c3028ada306e08
4,106,37,37,1,2,0,1512,20304d5f2c6f317f23c3028ada306e08
4,107,28,55,2,2,1,1234,20304d5f2c6f317f23c3028ada306e08
4,108,91,82,4,4,1,1348,20304d5f2c6f317f23c3028ada306e08
4,109,73,28,3,3,1,869,20304d5f2c6f317f23c3028ada306e08
4,110,37,64,2,2,1,1310,20304d5f2c6f317f23c3028ada306e08
4,111,55,64,4,3,0,1224,20304d5f2c6f317f23c3028ada306e08
4,112,46,64,2,4,0,1016,20304d5f2c6f317f23c3028ada306e08
4,113,28,28,1,1,1,1661,20304d5f2c6f317f23c3028ada306e08
4,114,73,73,4,4,1,1507,20304d5f2c6f317f23c3028ada306e08
4,115,55,28,3,3,1,877,20304d5f2c6f317f23c3028ada306e08
4,116,28,46,1,2,0,1259,20304d5f2c6f317f23c3028ada306e08
4,117,37,19,1,1,1,930,20304d5f2c6f317f23c3028ada306e08
4,118,46,28,1,1,1,1312,20304d5f2c6f317f23c3028ada306e08
4,119,73,37,3,3,1,1184,20304d5f2c6f317f23c3028ada306e08
4,120,19,37,1,1,1,848,20304d5f2c6f317f23c3028ada306e08
4,121,82,10,3,3,1,1365,20304d5f2c6f317f23c3028ada306e08
4,122,28,64,2,2,1,1329,20304d5f2c6f317f23c3028ada306e08
4,123,82,37,3,3,1,1343,20304d5f2c6f317f23c3028ada306e08
4,124,82,91,4,4,1,849,20304d5f2c6f317f23c3028ada306e08
4,125,64,37,3,3,1,991,20304d5f2c6f317f23c3028ada306e08
4,126,37,46,1,1,1,1283,20304d5f2c6f317f23c3028ada306e08
4,127,82,46,3,3,1,1049,20304d5f2c6f317f23c3028ada306e08
4,128,46,55,2,1,0,1426,20304d5f2c6f317f23c3028ada306e08
4,129,19,46,1,1,1,1139,20304d5f2c6f317f23c3028ada306e08
4,130,10,46,1,1,1,1105,20304d5f2c6f317f23c3028ada306e08
4,131,91,73,4,4,1,1187,20304d5f2c6f317f23c3028ada306e08
4,132,73,64,4,4,1,1062,20304d5f2c6f317f23c3028ada306e08
4,133,55,19,3,1,0,973,20304d5f2c6f317f23c3028ada306e08
4,134,82,64,4,4,1,1186,20304d5f2c6f317f23c3028ada306e08
4,135,64,28,3,2,0,1773,20304d5f2c6f317f23c3028ada306e08
4,136,82,28,3,3,1,975,20304d5f2c6f317f23c3028ada306e08
4,137,10,55,2,2,1,1282,20304d5f2c6f317f23c3028ada306e08
4,138,37,73,2,2,1,913,20304d5f2c6f317f23c3028ada306e08
4,139,91,10,3,3,1,1149,20304d5f2c6f317f23c3028ada306e08
4,140,46,91,2,4,0,1101,20304d5f2c6f317f23c3028ada306e08
4,141,82,19,3,3,1,1137,20304d5f2c6f317f23c3028ada306e08
4,142,73,46,3,3,1,1137,20304d5f2c6f317f23c3028ada306e08
4,143,64,91,4,4,1,1653,20304d5f2c6f317f23c3028ada306e08
4,144,82,55,4,4,1,1268,20304d5f2c6f317f23c3028ada306e08
4,145,10,91,2,2,1,967,20304d5f2c6f317f23c3028ada306e08
4,146,73,10,3,3,1,1095,20304d5f2c6f317f23c3028ada306e08
4,147,46,19,1,1,1,1615,20304d5f2c6f317f23c3028ada306e08
4,148,91,46,3,3,1,1097,20304d5f2c6f317f23c3028ada306e08
4,149,64,82,4,4,1,1257,20304d5f2c6f317f23c3028ada306e08
4,150,37,55,2,2,1,1429,20304d5f2c6f317f23c3028ada306e08
4,151,91,55,4,4,1,1396,20304d5f2c6f317f23c3028ada306e08
4,152,64,10,3,3,1,1056,20304d5f2c6f317f23c3028ada306e08
4,153,46,10,1,1,1,1311,20304d5f2c6f317f23c3028ada306e08
4,154,46,46,1,2,0,1135,20304d5f2c6f317f23c3028ada306e08
4,155,10,10,1,1,1,929,20304d5f2c6f317f23c3028ada306e08
4,156,10,64,2,2,1,997,20304d5f2c6f317f23c3028ada306e08
4,157,46,37,1,1,1,1192,20304d5f2c6f317f23c3028ada306e08
4,158,10,28,1,1,1,913,20304d5f2c6f317f23c3028ada306e08
4,159,55,46,3,1,0,1586,20304d5f2c6f317f23c3028ada306e08
4,160,64,19,3,3,1,1068,20304d5f2c6f317f23c3028ada306e08
4,161,91,28,3,3,1,1004,20304d5f2c6f317f23c3028ada306e08
4,162,10,73,2,2,1,1134,20304d5f2c6f317f23c3028ada306e08
4,163,91,91,4,4,1,1099,20304d5f2c6f317f23c3028ada306e08
4,164,73,82,4,4,1,853,20304d5f2c6f317f23c3028ada306e08
4,165,55,10,3,1,0,1582,20304d5f2c6f317f23c3028ada306e08
4,166,55,73,4,4,1,992,20304d5f2c6f317f23c3028ada306e08
4,167,10,37,1,1,1,1226,20304d5f2c6f317f23c3028ada306e08
4,168,91,37,3,3,1,1224,20304d5f2c6f317f23c3028ada306e08
4,169,37,82,2,2,1,1430,20304d5f2c6f317f23c3028ada306e08
4,170,64,64,4,4,1,1347,20304d5f2c6f317f23c3028ada306e08
4,171,28,10,1,1,1,933,20304d5f2c6f317f23c3028ada306e08
4,172,37,10,1,1,1,916,20304d5f2c6f317f23c3028ada306e08
4,173,82,82,4,4,1,1267,20304d5f2c6f317f23c3028ada306e08
4,174,19,28,1,1,1,1143,20304d5f2c6f317f23c3028ada306e08
4,175,46,73,2,4,0,1618,20304d5f2c6f317f23c3028ada306e08
4,176,19,73,2,2,1,926,20304d5f2c6f317f23c3028ada306e08
4,177,19,82,2,2,1,953,20304d5f2c6f317f23c3028ada306e08
4,178,64,55,4,3,0,1122,20304d5f2c6f317f23c3028ada306e08
4,179,73,55,4,3,0,1484,20304d5f2c6f317f23c3028ada306e08
4,180,64,46,3,3,1,1100,20304d5f2c6f317f23c3028ada306e08
4,181,28,37,1,1,1,1598,20304d5f2c6f317f23c3028ada306e08
4,182,55,37,3,1,0,940,20304d5f2c6f317f23c3028ada306e08
4,183,19,91,2,2,1,975,20304d5f2c6f317f23c3028ada306e08
4,184,19,55,2,2,1,1395,20304d5f2c6f317f23c3028ada306e08
4,185,28,19,1,1,1,924,20304d5f2c6f317f23c3028ada306e08
4,186,55,91,4,4,1,1168,20304d5f2c6f317f23c3028ada306e08
4,187,73,91,4,4,1,853,20304d5f2c6f317f23c3028ada306e08
4,188,91,19,3,3,1,884,20304d5f2c6f317f23c3028ada306e08
4,189,28,91,2,2,1,1213,20304d5f2c6f317f23c3028ada306e08
4,190,28,73,2,2,1,865,20304d5f2c6f317f23c3028ada306e08
4,191,28,82,2,2,1,793,20304d5f2c6f317f23c3028ada306e08
4,192,19,19,1,1,1,912,20304d5f2c6f317f23c3028ada306e08
4,193,55,82,4,2,0,925,20304d5f2c6f317f23c3028ada306e08
4,194,10,82,2,2,1,859,20304d5f2c6f317f23c3028ada306e08
4,195,10,19,1,1,1,854,20304d5f2c6f317f23c3028ada306e08
4,196,64,73,4,3,0,1198,20304d5f2c6f317f23c3028ada306e08
4,197,91,64,4,4,1,846,20304d5f2c6f317f23c3028ada306e08
4,198,19,10,1,1,1,1196,20304d5f2c6f317f23c3028ada306e08
4,199,19,64,2,2,1,1222,20304d5f2c6f317f23c3028ada306e08
4,200,82,64,4,4,1,1261,20304d5f2c6f317f23c3028ada306e08
4,201,64,46,3,3,1,925,20304d5f2c6f317f23c3028ada306e08
4,202,19,64,2,2,1,1169,20304d5f2c6f317f23c3028ada306e08
4,203,28,19,1,1,1,714,20304d5f2c6f317f23c3028ada306e08
4,204,64,28,3,3,1,1313,20304d5f2c6f317f23c3028ada306e08
4,205,64,73,4,4,1,989,20304d5f2c6f317f23c3028ada306e08
4,206,37,28,1,3,0,1231,20304d5f2c6f317f23c3028ada306e08
4,207,46,91,2,2,1,1296,20304d5f2c6f317f23c3028ada306e08
4,208,10,64,2,2,1,1038,20304d5f2c6f317f23c3028ada306e08
4,209,28,55,2,2,1,1136,20304d5f2c6f317f23c3028ada306e08
4,210,10,55,2,2,1,1175,20304d5f2c6f317f23c3028ada306e08
4,211,91,19,3,3,1,1134,20304d5f2c6f317f23c3028ada306e08
4,212,19,19,1,1,1,904,20304d5f2c6f317f23c3028ada306e08
4,213,28,46,1,1,1,1056,20304d5f2c6f317f23c3028ada306e08
4,214,91,28,3,3,1,1079,20304d5f2c6f317f23c3028ada306e08
4,215,46,28,1,3,0,1196,20304d5f2c6f317f23c3028ada306e08
4,216,73,46,3,3,1,920,20304d5f2c6f317f23c3028ada306e08
4,217,64,64,4,4,1,1154,20304d5f2c6f317f23c3028ada306e08
4,218,91,10,3,3,1,969,20304d5f2c6f317f23c3028ada306e08
4,219,64,82,4,4,1,1092,20304d5f2c6f317f23c3028ada306e08
4,220,19,37,1,2,0,1114,20304d5f2c6f317f23c3028ada306e08
4,221,82,37,3,3,1,965,20304d5f2c6f317f23c3028ada306e08
4,222,10,91,2,2,1,1190,20304d5f2c6f317f23c3028ada306e08
4,223,55,73,4,2,0,1144,20304d5f2c6f317f23c3028ada306e08
4,224,91,73,4,4,1,1051,20304d5f2c6f317f23c3028ada306e08
4,225,73,82,4,4,1,881,20304d5f2c6f317f23c3028ada306e08
4,226,46,46,1,2,0,1264,20304d5f2c6f317f23c3028ada306e08
4,227,10,73,2,2,1,992,20304d5f2c6f317f23c3028ada306e08
4,228,46,55,2,2,1,1163,20304d5f2c6f317f23c3028ada306e08
4,229,19,55,2,2,1,883,20304d5f2c6f317f23c3028ada306e08
4,230,55,91,4,4,1,1390,20304d5f2c6f317f23c3028ada306e08
4,231,10,28,1,1,1,904,20304d5f2c6f317f23c3028ada306e08
4,232,91,82,4,4,1,1283,20304d5f2c6f317f23c3028ada306e08
4,233,82,82,4,4,1,896,20304d5f2c6f317f23c3028ada306e08
4,234,19,46,1,2,0,1063,20304d5f2c6f317f23c3028ada306e08
4,235,46,82,2,2,1,1257,20304d5f2c6f317f23c3028ada306e08
4,236,91,55,4,3,0,967,20304d5f2c6f317f23c3028ada306e08
4,237,28,82,2,2,1,1054,20304d5f2c6f317f23c3028ada306e08
4,238,37,37,1,1,1,997,20304d5f2c6f317f23c3028ada306e08
4,239,46,64,2,2,1,902,20304d5f2c6f317f23c3028ada306e08
4,240,82,28,3,3,1,934,20304d5f2c6f317f23c3028ada306e08
4,241,19,91,2,2,1,1052,20304d5f2c6f317f23c3028ada306e08
4,242,82,10,3,3,1,969,20304d5f2c6f317f23c3028ada306e08
4,243,73,91,4,4,1,842,20304d5f2c6f317f23c3028ada306e08
4,244,28,91,2,2,1,1006,20304d5f2c6f317f23c3028ada306e08
4,245,19,73,2,2,1,984,20304d5f2c6f317f23c3028ada306e08
4,246,91,64,4,3,0,968,20304d5f2c6f317f23c3028ada306e08
4,247,73,73,4,4,1,970,20304d5f2c6f317f23c3028ada306e08
4,248,46,37,1,2,0,1237,20304d5f2c6f317f23c3028ada306e08
4,249,55,55,4,2,0,1716,20304d5f2c6f317f23c3028ada306e08
4,250,82,46,3,3,1,982,20304d5f2c6f317f23c3028ada306e08
4,251,64,91,4,4,1,904,20304d5f2c6f317f23c3028ada306e08
4,252,64,55,4,4,1,1274,20304d5f2c6f317f23c3028ada306e08
4,253,55,82,4,4,1,1085,20304d5f2c6f317f23c3028ada306e08
4,254,73,55,4,3,0,1060,20304d5f2c6f317f23c3028ada306e08
4,255,19,10,1,1,1,995,20304d5f2c6f317f23c3028ada306e08
4,256,28,10,1,1,1,794,20304d5f2c6f317f23c3028ada306e08
4,257,37,55,2,2,1,1186,20304d5f2c6f317f23c3028ada306e08
4,258,55,10,3,1,0,1195,20304d5f2c6f317f23c3028ada306e08
4,259,55,28,3,3,1,1485,20304d5f2c6f317f23c3028ada306e08
4,260,46,19,1,3,0,932,20304d5f2c6f317f23c3028ada306e08
4,261,37,73,2,2,1,1035,20304d5f2c6f317f23c3028ada306e08
4,262,28,37,1,1,1,1040,20304d5f2c6f317f23c3028ada306e08
4,263,91,37,3,3,1,1059,20304d5f2c6f317f23c3028ada306e08
4,264,46,10,1,1,1,1002,20304d5f2c6f317f23c3028ada306e08
4,265,73,19,3,3,1,933,20304d5f2c6f317f23c3028ada306e08
4,266,82,55,4,4,1,1181,20304d5f2c6f317f23c3028ada306e08
4,267,37,91,2,2,1,1240,20304d5f2c6f317f23c3028ada306e08
4,268,64,37,3,3,1,1303,20304d5f2c6f317f23c3028ada306e08
4,269,19,82,2,2,1,1135,20304d5f2c6f317f23c3028ada306e08
4,270,55,46,3,3,1,1556,20304d5f2c6f317f23c3028ada306e08
4,271,10,10,1,1,1,975,20304d5f2c6f317f23c3028ada306e08
4,272,10,37,1,1,1,1282,20304d5f2c6f317f23c3028ada306e08
4,273,82,91,4,4,1,959,20304d5f2c6f317f23c3028ada306e08
4,274,64,19,3,3,1,1142,20304d5f2c6f317f23c3028ada306e08
4,275,10,82,2,2,1,872,20304d5f2c6f317f23c3028ada306e08
4,276,55,19,3,3,1,1054,20304d5f2c6f317f23c3028ada306e08
4,277,28,73,2,2,1,1185,20304d5f2c6f317f23c3028ada306e08
4,278,19,28,1,1,1,805,20304d5f2c6f317f23c3028ada306e08
4,279,73,64,4,4,1,1164,20304d5f2c6f317f23c3028ada306e08
4,280,37,19,1,1,1,1355,20304d5f2c6f317f23c3028ada306e08
4,281,10,19,1,1,1,769,20304d5f2c6f317f23c3028ada306e08
4,282,82,19,3,3,1,878,20304d5f2c6f317f23c3028ada306e08
4,283,64,10,3,3,1,1098,20304d5f2c6f317f23c3028ada306e08
4,284,73,10,3,3,1,840,20304d5f2c6f317f23c3028ada306e08
4,285,55,64,4,4,1,894,20304d5f2c6f317f23c3028ada306e08
4,286,55,37,3,3,1,1087,20304d5f2c6f317f23c3028ada306e08
4,287,37,10,1,1,1,1555,20304d5f2c6f317f23c3028ada306e08
4,288,37,46,1,1,1,1425,20304d5f2c6f317f23c3028ada306e08
4,289,91,46,3,3,1,934,20304d5f2c6f317f23c3028ada306e08
4,290,28,28,1,1,1,894,20304d5f2c6f317f23c3028ada306e08
4,291,73,28,3,3,1,1203,20304d5f2c6f317f23c3028ada306e08
4,292,28,64,2,2,1,1017,20304d5f2c6f317f23c3028ada306e08
4,293,82,73,4,4,1,1010,20304d5f2c6f317f23c3028ada306e08
4,294,37,64,2,4,0,1110,20304d5f2c6f317f23c3028ada306e08
4,295,37,82,2,2,1,1006,20304d5f2c6f317f23c3028ada306e08
4,296,73,37,3,3,1,1044,20304d5f2c6f317f23c3028ada306e08
4,297,46,73,2,4,0,1146,20304d5f2c6f317f23c3028ada306e08
4,298,10,46,1,1,1,1225,20304d5f2c6f317f23c3028ada306e08
4,299,91,91,4,4,1,926,20304d5f2c6f317f23c3028ada306e08
4,300,73,19,3,3,1,989,20304d5f2c6f317f23c3028ada306e08
4,301,82,19,3,3,1,838,20304d5f2c6f317f23c3028ada306e08
4,302,55,37,3,3,1,1003,20304d5f2c6f317f23c3028ada306e08
4,303,28,73,2,2,1,911,20304d5f2c6f317f23c3028ada306e08
4,304,19,82,2,2,1,752,20304d5f2c6f317f23c3028ada306e08
4,305,37,82,2,2,1,752,20304d5f2c6f317f23c3028ada306e08
4,306,19,55,2,2,1,1175,20304d5f2c6f317f23c3028ada306e08
4,307,64,55,4,3,0,1025,20304d5f2c6f317f23c3028ada306e08
4,308,46,46,1,3,0,1174,20304d5f2c6f317f23c3028ada306e08
4,309,82,73,4,4,1,1056,20304d5f2c6f317f23c3028ada306e08
4,310,73,28,3,3,1,893,20304d5f2c6f317f23c3028ada306e08
4,311,64,64,4,4,1,979,20304d5f2c6f317f23c3028ada306e08
4,312,37,37,1,1,1,1094,20304d5f2c6f317f23c3028ada306e08
4,313,37,73,2,2,1,793,20304d5f2c6f317f23c3028ada306e08
4,314,55,73,4,4,1,1448,20304d5f2c6f317f23c3028ada306e08
4,315,46,55,2,3,0,1223,20304d5f2c6f317f23c3028ada306e08
4,316,91,46,3,3,1,1112,20304d5f2c6f317f23c3028ada306e08
4,317,46,73,2,2,1,959,20304d5f2c6f317f23c3028ada306e08
4,318,19,46,1,1,1,993,20304d5f2c6f317f23c3028ada306e08
4,319,91,19,3,3,1,984,20304d5f2c6f317f23c3028ada306e08
4,320,37,55,2,2,1,1285,20304d5f2c6f317f23c3028ada306e08
4,321,55,91,4,4,1,1856,20304d5f2c6f317f23c3028ada306e08
4,322,91,64,4,4,1,1141,20304d5f2c6f317f23c3028ada306e08
4,323,10,10,1,1,1,846,20304d5f2c6f317f23c3028ada306e08
4,324,28,19,1,1,1,765,20304d5f2c6f317f23c3028ada306e08
4,325,46,28,1,1,1,885,20304d5f2c6f317f23c3028ada306e08
4,326,91,37,3,3,1,936,20304d5f2c6f317f23c3028ada306e08
4,327,55,46,3,2,0,1499,20304d5f2c6f317f23c3028ada306e08
4,328,73,37,3,3,1,1128,20304d5f2c6f317f23c3028ada306e08
4,329,37,10,1,1,1,936,20304d5f2c6f317f23c3028ada306e08
4,330,28,46,1,1,1,1144,20304d5f2c6f317f23c3028ada306e08
4,331,10,64,2,2,1,854,20304d5f2c6f317f23c3028ada306e08
4,332,46,37,1,1,1,1237,20304d5f2c6f317f23c3028ada306e08
4,333,46,10,1,1,1,993,20304d5f2c6f317f23c3028ada306e08
4,334,91,82,4,4,1,1064,20304d5f2c6f317f23c3028ada306e08
4,335,91,28,3,3,1,903,20304d5f2c6f317f23c3028ada306e08
4,336,73,91,4,4,1,873,20304d5f2c6f317f23c3028ada306e08
4,337,82,91,4,4,1,777,20304d5f2c6f317f23c3028ada306e08
4,338,10,46,1,2,0,1288,20304d5f2c6f317f23c3028ada306e08
4,339,10,73,2,2,1,1010,20304d5f2c6f317f23c3028ada306e08
4,340,55,10,3,3,1,1267,20304d5f2c6f317f23c3028ada306e08
4,341,82,46,3,3,1,963,20304d5f2c6f317f23c3028ada306e08
4,342,55,64,4,4,1,898,20304d5f2c6f317f23c3028ada306e08
4,343,19,28,1,1,1,1309,20304d5f2c6f317f23c3028ada306e08
4,344,73,46,3,3,1,1195,20304d5f2c6f317f23c3028ada306e08
4,345,91,55,4,4,1,939,20304d5f2c6f317f23c3028ada306e08
4,346,64,37,3,3,1,957,20304d5f2c6f317f23c3028ada306e08
4,347,73,73,4,4,1,926,20304d5f2c6f317f23c3028ada306e08
4,348,64,10,3,3,1,1389,20304d5f2c6f317f23c3028ada306e08
4,349,73,64,4,4,1,1202,20304d5f2c6f317f23c3028ada306e08
4,350,64,28,3,3,1,918,20304d5f2c6f317f23c3028ada306e08
4,351,19,64,2,2,1,969,20304d5f2c6f317f23c3028ada306e08
4,352,19,19,1,1,1,906,20304d5f2c6f317f23c3028ada306e08
4,353,64,82,4,4,1,938,20304d5f2c6f317f23c3028ada306e08
4,354,37,46,1,3,0,1264,20304d5f2c6f317f23c3028ada306e08
4,355,19,73,2,2,1,885,20304d5f2c6f317f23c3028ada306e08
4,356,91,73,4,4,1,1156,20304d5f2c6f317f23c3028ada306e08
4,357,64,91,4,4,1,1043,20304d5f2c6f317f23c3028ada306e08
4,358,55,55,4,4,1,1436,20304d5f2c6f317f23c3028ada306e08
4,359,82,55,4,4,1,1133,20304d5f2c6f317f23c3028ada306e08
4,360,28,82,2,2,1,1943,20304d5f2c6f317f23c3028ada306e08
4,361,19,37,1,1,1,1007,20304d5f2c6f317f23c3028ada306e08
4,362,10,28,1,1,1,918,20304d5f2c6f317f23c3028ada306e08
4,363,28,28,1,1,1,874,20304d5f2c6f317f23c3028ada306e08
4,364,64,73,4,4,1,903,20304d5f2c6f317f23c3028ada306e08
4,365,10,37,1,1,1,935,20304d5f2c6f317f23c3028ada306e08
4,366,37,91,2,2,1,1105,20304d5f2c6f317f23c3028ada306e08
4,367,37,19,1,1,1,839,20304d5f2c6f317f23c3028ada306e08
4,368,82,64,4,4,1,1024,20304d5f2c6f317f23c3028ada306e08
4,369,19,91,2,2,1,920,20304d5f2c6f317f23c3028ada306e08
4,370,64,46,3,3,1,1287,20304d5f2c6f317f23c3028ada306e08
4,371,37,64,2,2,1,1476,20304d5f2c6f317f23c3028ada306e08
4,372,10,91,2,2,1,864,20304d5f2c6f317f23c3028ada306e08
4,373,55,28,3,3,1,1038,20304d5f2c6f317f23c3028ada306e08
4,374,28,64,2,2,1,1488,20304d5f2c6f317f23c3028ada306e08
4,375,46,82,2,2,1,837,20304d5f2c6f317f23c3028ada306e08
4,376,64,19,3,3,1,1043,20304d5f2c6f317f23c3028ada306e08
4,377,73,82,4,4,1,1055,20304d5f2c6f317f23c3028ada306e08
4,378,46,64,2,4,0,1078,20304d5f2c6f317f23c3028ada306e08
4,379,82,37,3,3,1,1045,20304d5f2c6f317f23c3028ada306e08
4,380,73,10,3,3,1,1144,20304d5f2c6f317f23c3028ada306e08
4,381,10,55,2,2,1,938,20304d5f2c6f317f23c3028ada306e08
4,382,19,10,1,1,1,814,20304d5f2c6f317f23c3028ada306e08
4,383,10,82,2,1,0,982,20304d5f2c6f317f23c3028ada306e08
4,384,28,55,2,2,1,862,20304d5f2c6f317f23c3028ada306e08
4,385,91,10,3,3,1,1023,20304d5f2c6f317f23c3028ada306e08
4,386,10,19,1,1,1,1124,20304d5f2c6f317f23c3028ada306e08
4,387,73,55,4,4,1,1233,20304d5f2c6f317f23c3028ada306e08
4,388,82,28,3,3,1,857,20304d5f2c6f317f23c3028ada306e08
4,389,46,19,1,1,1,1231,20304d5f2c6f317f23c3028ada306e08
4,390,82,10,3,3,1,948,20304d5f2c6f317f23c3028ada306e08
4,391,91,91,4,4,1,855,20304d5f2c6f317f23c3028ada306e08
4,392,55,19,3,3,1,1011,20304d5f2c6f317f23c3028ada306e08
4,393,28,37,1,2,0,1374,20304d5f2c6f317f23c3028ada306e08
4,394,46,91,2,4,0,875,20304d5f2c6f317f23c3028ada306e08
4,395,28,10,1,1,1,836,20304d5f2c6f317f23c3028ada306e08
4,396,28,91,2,2,1,945,20304d5f2c6f317f23c3028ada306e08
4,397,82,82,4,4,1,881,20304d5f2c6f317f23c3028ada306e08
4,398,37,28,1,1,1,1083,20304d5f2c6f317f23c3028ada306e08
4,399,55,82,4,2,0,1104,20304d5f2c6f317f23c3028ada306e08
1,0,73,73,1,8,9999,501,719069a46295e2de3d8143b1df1fc2ba
1,1,73,55,1,7,9999,1319,719069a46295e2de3d8143b1df1fc2ba
1,2,91,46,1,7,9999,1215,719069a46295e2de3d8143b1df1fc2ba
1,3,64,19,1,5,9999,1541,719069a46295e2de3d8143b1df1fc2ba
1,4,28,19,1,5,9999,1434,719069a46295e2de3d8143b1df1fc2ba
1,5,91,73,1,3,9999,2103,719069a46295e2de3d8143b1df1fc2ba
1,6,19,91,1,1,9999,1850,719069a46295e2de3d8143b1df1fc2ba
1,7,10,19,1,4,9999,2460,719069a46295e2de3d8143b1df1fc2ba
1,8,55,73,1,1,9999,2264,719069a46295e2de3d8143b1df1fc2ba
1,9,37,19,1,4,9999,2332,719069a46295e2de3d8143b1df1fc2ba
1,10,55,10,1,8,9999,1499,719069a46295e2de3d8143b1df1fc2ba
1,11,91,19,1,7,9999,1255,719069a46295e2de3d8143b1df1fc2ba
1,12,64,64,1,5,9999,1631,719069a46295e2de3d8143b1df1fc2ba
1,13,64,55,1,8,9999,1504,719069a46295e2de3d8143b1df1fc2ba
1,14,46,10,1,4,9999,1267,719069a46295e2de3d8143b1df1fc2ba
1,15,37,64,1,4,9999,2361,719069a46295e2de3d8143b1df1fc2ba
1,16,82,91,1,1,9999,1509,719069a46295e2de3d8143b1df1fc2ba
1,17,82,55,1,3,9999,2002,719069a46295e2de3d8143b1df1fc2ba
1,18,73,64,1,7,9999,1468,719069a46295e2de3d8143b1df1fc2ba
1,19,37,46,1,5,9999,1665,719069a46295e2de3d8143b1df1fc2ba
1,20,19,82,1,3,9999,1925,719069a46295e2de3d8143b1df1fc2ba
1,21,64,91,1,6,9999,1447,719069a46295e2de3d8143b1df1fc2ba
1,22,37,10,1,2,9999,2018,719069a46295e2de3d8143b1df1fc2ba
1,23,37,28,1,5,9999,1858,719069a46295e2de3d8143b1df1fc2ba
1,24,82,28,1,6,9999,2494,719069a46295e2de3d8143b1df1fc2ba
1,25,91,64,1,4,9999,1844,719069a46295e2de3d8143b1df1fc2ba
1,26,28,91,1,3,9999,2163,719069a46295e2de3d8143b1df1fc2ba
1,27,10,64,1,5,9999,2057,719069a46295e2de3d8143b1df1fc2ba
1,28,82,73,1,7,9999,1667,719069a46295e2de3d8143b1df1fc2ba
1,29,64,37,1,5,9999,1651,719069a46295e2de3d8143b1df1fc2ba
1,30,10,82,1,3,9999,1379,719069a46295e2de3d8143b1df1fc2ba
1,31,19,55,1,4,9999,1372,719069a46295e2de3d8143b1df1fc2ba
1,32,46,28,1,5,9999,1265,719069a46295e2de3d8143b1df1fc2ba
1,33,91,91,1,2,9999,2035,719069a46295e2de3d8143b1df1fc2ba
1,34,10,91,1,7,9999,1431,719069a46295e2de3d8143b1df1fc2ba
1,35,37,55,1,4,9999,2767,719069a46295e2de3d8143b1df1fc2ba
1,36,73,91,1,2,9999,2374,719069a46295e2de3d8143b1df1fc2ba
1,37,28,73,1,6,9999,1275,719069a46295e2de3d8143b1df1fc2ba
1,38,82,46,1,3,9999,2106,719069a46295e2de3d8143b1df1fc2ba
1,39,28,37,1,6,9999,1531,719069a46295e2de3d8143b1df1fc2ba
1,40,10,28,1,7,9999,1107,719069a46295e2de3d8143b1df1fc2ba
1,41,46,64,1,5,9999,1520,719069a46295e2de3d8143b1df1fc2ba
1,42,55,82,1,4,9999,2249,719069a46295e2de3d8143b1df1fc2ba
1,43,64,46,1,5,9999,1946,719069a46295e2de3d8143b1df1fc2ba
1,44,73,10,1,2,9999,1584,719069a46295e2de3d8143b1df1fc2ba
1,45,55,19,1,7,9999,2475,719069a46295e2de3d8143b1df1fc2ba
1,46,46,55,1,6,9999,1326,719069a46295e2de3d8143b1df1fc2ba
1,47,82,19,1,6,9999,1451,719069a46295e2de3d8143b1df1fc2ba
1,48,37,91,1,1,9999,1438,719069a46295e2de3d8143b1df1fc2ba
1,49,28,82,1,5,9999,1988,719069a46295e2de3d8143b1df1fc2ba
1,50,28,64,1,6,9999,1525,719069a46295e2de3d8143b1df1fc2ba
1,51,64,82,1,6,9999,2203,719069a46295e2de3d8143b1df1fc2ba
1,52,46,19,1,3,9999,1743,719069a46295e2de3d8143b1df1fc2ba
1,53,91,28,1,5,9999,1471,719069a46295e2de3d8143b1df1fc2ba
1,54,10,55,1,2,9999,2400,719069a46295e2de3d8143b1df1fc2ba
1,55,46,91,1,2,9999,2171,719069a46295e2de3d8143b1df1fc2ba
1,56,64,73,1,5,9999,2599,719069a46295e2de3d8143b1df1fc2ba
1,57,82,82,1,7,9999,2183,719069a46295e2de3d8143b1df1fc2ba
1,58,37,37,1,2,9999,1431,719069a46295e2de3d8143b1df1fc2ba
1,59,19,28,1,4,9999,2003,719069a46295e2de3d8143b1df1fc2ba
1,60,91,55,1,4,9999,1122,719069a46295e2de3d8143b1df1fc2ba
1,61,28,55,1,5,9999,1415,719069a46295e2de3d8143b1df1fc2ba
1,62,73,46,1,5,9999,1094,719069a46295e2de3d8143b1df1fc2ba
1,63,19,37,1,3,9999,1298,719069a46295e2de3d8143b1df1fc2ba
1,64,55,64,1,4,9999,1585,719069a46295e2de3d8143b1df1fc2ba
1,65,82,10,1,1,9999,1402,719069a46295e2de3d8143b1df1fc2ba
1,66,28,28,1,5,9999,2898,719069a46295e2de3d8143b1df1fc2ba
1,67,46,46,1,6,9999,2059,719069a46295e2de3d8143b1df1fc2ba
1,68,55,91,1,3,9999,1468,719069a46295e2de3d8143b1df1fc2ba
1,69,64,10,1,3,9999,2162,719069a46295e2de3d8143b1df1fc2ba
1,70,55,46,1,5,9999,2807,719069a46295e2de3d8143b1df1fc2ba
1,71,37,82,1,3,9999,1486,719069a46295e2de3d8143b1df1fc2ba
1,72,19,64,1,3,9999,1411,719069a46295e2de3d8143b1df1fc2ba
1,73,19,46,1,5,9999,1499,719069a46295e2de3d8143b1df1fc2ba
1,74,19,19,1,4,9999,1772,719069a46295e2de3d8143b1df1fc2ba
1,75,28,10,1,6,9999,1843,719069a46295e2de3d8143b1df1fc2ba
1,76,73,19,1,6,9999,1234,719069a46295e2de3d8143b1df1fc2ba
1,77,19,73,1,6,9999,2030,719069a46295e2de3d8143b1df1fc2ba
1,78,91,37,1,3,9999,1351,719069a46295e2de3d8143b1df1fc2ba
1,79,37,73,1,3,9999,1186,719069a46295e2de3d8143b1df1fc2ba
1,80,73,82,1,4,9999,1291,719069a46295e2de3d8143b1df1fc2ba
1,81,28,46,1,2,9999,1708,719069a46295e2de3d8143b1df1fc2ba
1,82,10,37,1,4,9999,1276,719069a46295e2de3d8143b1df1fc2ba
1,83,82,64,1,4,9999,1105,719069a46295e2de3d8143b1df1fc2ba
1,84,46,82,1,3,9999,1253,719069a46295e2de3d8143b1df1fc2ba
1,85,10,73,1,3,9999,2057,719069a46295e2de3d8143b1df1fc2ba
1,86,91,10,1,1,9999,1393,719069a46295e2de3d8143b1df1fc2ba
1,87,55,28,1,3,9999,2073,719069a46295e2de3d8143b1df1fc2ba
1,88,55,37,1,6,9999,1478,719069a46295e2de3d8143b1df1fc2ba
1,89,10,10,1,3,9999,1300,719069a46295e2de3d8143b1df1fc2ba
1,90,46,37,1,4,9999,1451,719069a46295e2de3d8143b1df1fc2ba
1,91,46,73,1,1,9999,1351,719069a46295e2de3d8143b1df1fc2ba
1,92,82,37,1,3,9999,1198,719069a46295e2de3d8143b1df1fc2ba
1,93,91,82,1,1,9999,1622,719069a46295e2de3d8143b1df1fc2ba
1,94,10,46,1,4,9999,1572,719069a46295e2de3d8143b1df1fc2ba
1,95,55,55,1,6,9999,1698,719069a46295e2de3d8143b1df1fc2ba
1,96,64,28,1,4,9999,1394,719069a46295e2de3d8143b1df1fc2ba
1,97,73,28,1,3,9999,1903,719069a46295e2de3d8143b1df1fc2ba
1,98,19,10,1,5,9999,1872,719069a46295e2de3d8143b1df1fc2ba
1,99,73,37,1,5,9999,1491,719069a46295e2de3d8143b1df1fc2ba
1,100,46,82,1,8,9999,1872,719069a46295e2de3d8143b1df1fc2ba
1,101,10,46,1,4,9999,2713,719069a46295e2de3d8143b1df1fc2ba
1,102,46,91,1,3,9999,3421,719069a46295e2de3d8143b1df1fc2ba
1,103,37,28,1,1,9999,1387,719069a46295e2de3d8143b1df1fc2ba
1,104,73,28,1,3,9999,2114,719069a46295e2de3d8143b1df1fc2ba
1,105,64,46,1,5,9999,1553,719069a46295e2de3d8143b1df1fc2ba
1,106,19,82,1,4,9999,1275,719069a46295e2de3d8143b1df1fc2ba
1,107,28,28,1,1,9999,1269,719069a46295e2de3d8143b1df1fc2ba
1,108,28,55,1,4,9999,1254,719069a46295e2de3d8143b1df1fc2ba
1,109,91,64,1,5,9999,1138,719069a46295e2de3d8143b1df1fc2ba
1,110,73,55,1,4,9999,1131,719069a46295e2de3d8143b1df1fc2ba
1,111,10,91,1,1,9999,1816,719069a46295e2de3d8143b1df1fc2ba
1,112,10,19,1,1,9999,797,719069a46295e2de3d8143b1df1fc2ba
1,113,19,91,1,1,9999,685,719069a46295e2de3d8143b1df1fc2ba
1,114,10,82,1,6,9999,1639,719069a46295e2de3d8143b1df1fc2ba
1,115,55,91,1,7,9999,1359,719069a46295e2de3d8143b1df1fc2ba
1,116,28,46,1,3,9999,1188,719069a46295e2de3d8143b1df1fc2ba
1,117,55,55,1,3,9999,1780,719069a46295e2de3d8143b1df1fc2ba
1,118,55,46,1,6,9999,1216,719069a46295e2de3d8143b1df1fc2ba
1,119,10,64,1,7,9999,967,719069a46295e2de3d8143b1df1fc2ba
1,120,91,10,1,1,9999,999,719069a46295e2de3d8143b1df1fc2ba
1,121,37,55,1,2,9999,1706,719069a46295e2de3d8143b1df1fc2ba
1,122,91,37,1,5,9999,1434,719069a46295e2de3d8143b1df1fc2ba
1,123,55,64,1,5,9999,861,719069a46295e2de3d8143b1df1fc2ba
1,124,10,10,1,1,9999,1634,719069a46295e2de3d8143b1df1fc2ba
1,125,19,28,1,2,9999,1662,719069a46295e2de3d8143b1df1fc2ba
1,126,82,46,1,3,9999,1648,719069a46295e2de3d8143b1df1fc2ba
1,127,28,91,1,1,9999,1306,719069a46295e2de3d8143b1df1fc2ba
1,128,64,19,1,1,9999,1714,719069a46295e2de3d8143b1df1fc2ba
1,129,46,19,1,7,9999,1605,719069a46295e2de3d8143b1df1fc2ba
1,130,91,73,1,4,9999,1359,719069a46295e2de3d8143b1df1fc2ba
1,131,37,46,1,7,9999,1446,719069a46295e2de3d8143b1df1fc2ba
1,132,73,46,1,6,9999,1365,719069a46295e2de3d8143b1df1fc2ba
1,133,46,73,1,5,9999,1055,719069a46295e2de3d8143b1df1fc2ba
1,134,55,28,1,3,9999,2121,719069a46295e2de3d8143b1df1fc2ba
1,135,73,10,1,1,9999,1380,719069a46295e2de3d8143b1df1fc2ba
1,136,46,64,1,1,9999,1322,719069a46295e2de3d8143b1df1fc2ba
1,137,82,37,1,7,9999,1405,719069a46295e2de3d8143b1df1fc2ba
1,138,82,10,1,1,9999,1564,719069a46295e2de3d8143b1df1fc2ba
1,139,28,73,1,1,9999,1620,719069a46295e2de3d8143b1df1fc2ba
1,140,19,19,1,1,9999,1212,719069a46295e2de3d8143b1df1fc2ba
1,141,28,10,1,6,9999,1602,719069a46295e2de3d8143b1df1fc2ba
1,142,19,37,1,5,9999,1142,719069a46295e2de3d8143b1df1fc2ba
1,143,64,55,1,6,9999,1434,719069a46295e2de3d8143b1df1fc2ba
1,144,82,55,1,6,9999,1381,719069a46295e2de3d8143b1df1fc2ba
1,145,10,37,1,4,9999,1320,719069a46295e2de3d8143b1df1fc2ba
1,146,64,10,1,1,9999,1934,719069a46295e2de3d8143b1df1fc2ba
1,147,37,64,1,4,9999,1398,719069a46295e2de3d8143b1df1fc2ba
1,148,91,28,1,4,9999,926,719069a46295e2de3d8143b1df1fc2ba
1,149,91,46,1,5,9999,1389,719069a46295e2de3d8143b1df1fc2ba
1,150,64,28,1,3,9999,1091,719069a46295e2de3d8143b1df1fc2ba
1,151,91,55,1,5,9999,916,719069a46295e2de3d8143b1df1fc2ba
1,152,37,10,1,2,9999,1061,719069a46295e2de3d8143b1df1fc2ba
1,153,91,19,1,5,9999,1473,719069a46295e2de3d8143b1df1fc2ba
1,154,46,46,1,4,9999,999,719069a46295e2de3d8143b1df1fc2ba
1,155,55,73,1,2,9999,1497,719069a46295e2de3d8143b1df1fc2ba
1,156,37,37,1,4,9999,1012,719069a46295e2de3d8143b1df1fc2ba
1,157,19,46,1,5,9999,964,719069a46295e2de3d8143b1df1fc2ba
1,158,46,55,1,5,9999,891,719069a46295e2de3d8143b1df1fc2ba
1,159,55,19,1,4,9999,807,719069a46295e2de3d8143b1df1fc2ba
1,160,10,55,1,5,9999,1749,719069a46295e2de3d8143b1df1fc2ba
1,161,10,73,1,5,9999,845,719069a46295e2de3d8143b1df1fc2ba
1,162,91,82,1,6,9999,1134,719069a46295e2de3d8143b1df1fc2ba
1,163,28,64,1,5,9999,908,719069a46295e2de3d8143b1df1fc2ba
1,164,28,82,1,5,9999,699,719069a46295e2de3d8143b1df1fc2ba
1,165,73,64,1,5,9999,1008,719069a46295e2de3d8143b1df1fc2ba
1,166,82,82,1,3,9999,1038,719069a46295e2de3d8143b1df1fc2ba
1,167,46,10,1,1,9999,1682,719069a46295e2de3d8143b1df1fc2ba
1,168,46,28,1,5,9999,1357,719069a46295e2de3d8143b1df1fc2ba
1,169,10,28,1,6,9999,1352,719069a46295e2de3d8143b1df1fc2ba
