n_categories,trial_id,x1_true,x2_true,cat_true,response,accuracy,rt,participant_id
1,0,10,73,1,7,9999,5371,b35db31e1ae3a04f2df6bbf2dec6eb07
1,1,73,55,1,8,9999,2231,b35db31e1ae3a04f2df6bbf2dec6eb07
1,2,37,91,1,7,9999,2190,b35db31e1ae3a04f2df6bbf2dec6eb07
1,3,37,37,1,5,9999,2358,b35db31e1ae3a04f2df6bbf2dec6eb07
1,4,55,73,1,6,9999,3829,b35db31e1ae3a04f2df6bbf2dec6eb07
1,5,55,64,1,7,9999,1355,b35db31e1ae3a04f2df6bbf2dec6eb07
1,6,91,19,1,3,9999,2064,b35db31e1ae3a04f2df6bbf2dec6eb07
1,7,64,46,1,4,9999,1991,b35db31e1ae3a04f2df6bbf2dec6eb07
1,8,19,37,1,3,9999,1852,b35db31e1ae3a04f2df6bbf2dec6eb07
1,9,46,82,1,3,9999,1651,b35db31e1ae3a04f2df6bbf2dec6eb07
1,10,55,82,1,8,9999,1941,b35db31e1ae3a04f2df6bbf2dec6eb07
1,11,19,64,1,5,9999,1960,b35db31e1ae3a04f2df6bbf2dec6eb07
1,12,37,73,1,8,9999,1504,b35db31e1ae3a04f2df6bbf2dec6eb07
1,13,19,73,1,8,9999,1031,b35db31e1ae3a04f2df6bbf2dec6eb07
1,14,73,10,1,1,9999,1473,b35db31e1ae3a04f2df6bbf2dec6eb07
1,15,37,19,1,7,9999,1935,b35db31e1ae3a04f2df6bbf2dec6eb07
1,16,73,91,1,3,9999,2449,b35db31e1ae3a04f2df6bbf2dec6eb07
1,17,82,19,1,4,9999,2318,b35db31e1ae3a04f2df6bbf2dec6eb07
1,18,55,10,1,7,9999,1335,b35db31e1ae3a04f2df6bbf2dec6eb07
1,19,46,28,1,6,9999,1993,b35db31e1ae3a04f2df6bbf2dec6eb07
1,20,28,73,1,3,9999,1652,b35db31e1ae3a04f2df6bbf2dec6eb07
1,21,82,64,1,7,9999,1523,b35db31e1ae3a04f2df6bbf2dec6eb07
1,22,28,28,1,4,9999,1882,b35db31e1ae3a04f2df6bbf2dec6eb07
1,23,10,91,1,1,9999,1618,b35db31e1ae3a04f2df6bbf2dec6eb07
1,24,28,82,1,7,9999,1964,b35db31e1ae3a04f2df6bbf2dec6eb07
1,25,82,91,1,8,9999,1039,b35db31e1ae3a04f2df6bbf2dec6eb07
1,26,91,28,1,3,9999,1808,b35db31e1ae3a04f2df6bbf2dec6eb07
1,27,19,28,1,3,9999,2570,b35db31e1ae3a04f2df6bbf2dec6eb07
1,28,10,10,1,3,9999,2553,b35db31e1ae3a04f2df6bbf2dec6eb07
1,29,55,37,1,4,9999,2093,b35db31e1ae3a04f2df6bbf2dec6eb07
1,30,64,10,1,4,9999,1642,b35db31e1ae3a04f2df6bbf2dec6eb07
1,31,64,28,1,5,9999,1615,b35db31e1ae3a04f2df6bbf2dec6eb07
1,32,55,46,1,6,9999,1506,b35db31e1ae3a04f2df6bbf2dec6eb07
1,33,91,82,1,3,9999,2287,b35db31e1ae3a04f2df6bbf2dec6eb07
1,34,28,19,1,2,9999,1352,b35db31e1ae3a04f2df6bbf2dec6eb07
1,35,10,37,1,3,9999,2173,b35db31e1ae3a04f2df6bbf2dec6eb07
1,36,64,73,1,4,9999,1430,b35db31e1ae3a04f2df6bbf2dec6eb07
1,37,91,10,1,3,9999,2361,b35db31e1ae3a04f2df6bbf2dec6eb07
1,38,82,82,1,3,9999,1543,b35db31e1ae3a04f2df6bbf2dec6eb07
1,39,19,82,1,3,9999,2606,b35db31e1ae3a04f2df6bbf2dec6eb07
1,40,10,46,1,6,9999,2141,b35db31e1ae3a04f2df6bbf2dec6eb07
1,41,64,37,1,5,9999,1549,b35db31e1ae3a04f2df6bbf2dec6eb07
1,42,37,55,1,7,9999,2589,b35db31e1ae3a04f2df6bbf2dec6eb07
1,43,37,28,1,4,9999,2540,b35db31e1ae3a04f2df6bbf2dec6eb07
1,44,10,82,1,1,9999,1722,b35db31e1ae3a04f2df6bbf2dec6eb07
1,45,28,55,1,7,9999,1526,b35db31e1ae3a04f2df6bbf2dec6eb07
1,46,73,37,1,7,9999,1377,b35db31e1ae3a04f2df6bbf2dec6eb07
1,47,19,46,1,5,9999,1545,b35db31e1ae3a04f2df6bbf2dec6eb07
1,48,73,19,1,3,9999,1544,b35db31e1ae3a04f2df6bbf2dec6eb07
1,49,10,64,1,1,9999,1507,b35db31e1ae3a04f2df6bbf2dec6eb07
1,50,64,82,1,1,9999,2659,b35db31e1ae3a04f2df6bbf2dec6eb07
1,51,64,91,1,7,9999,1396,b35db31e1ae3a04f2df6bbf2dec6eb07
1,52,37,10,1,3,9999,1616,b35db31e1ae3a04f2df6bbf2dec6eb07
1,53,10,55,1,3,9999,1971,b35db31e1ae3a04f2df6bbf2dec6eb07
1,54,91,91,1,1,9999,1760,b35db31e1ae3a04f2df6bbf2dec6eb07
1,55,46,55,1,4,9999,2276,b35db31e1ae3a04f2df6bbf2dec6eb07
1,56,19,19,1,2,9999,1300,b35db31e1ae3a04f2df6bbf2dec6eb07
1,57,73,73,1,1,9999,1293,b35db31e1ae3a04f2df6bbf2dec6eb07
1,58,73,82,1,7,9999,1453,b35db31e1ae3a04f2df6bbf2dec6eb07
1,59,73,64,1,7,9999,1616,b35db31e1ae3a04f2df6bbf2dec6eb07
1,60,91,55,1,6,9999,1124,b35db31e1ae3a04f2df6bbf2dec6eb07
1,61,37,46,1,5,9999,2072,b35db31e1ae3a04f2df6bbf2dec6eb07
1,62,73,46,1,8,9999,1668,b35db31e1ae3a04f2df6bbf2dec6eb07
1,63,46,19,1,5,9999,1736,b35db31e1ae3a04f2df6bbf2dec6eb07
1,64,64,64,1,6,9999,1880,b35db31e1ae3a04f2df6bbf2dec6eb07
1,65,19,10,1,2,9999,2269,b35db31e1ae3a04f2df6bbf2dec6eb07
1,66,37,64,1,4,9999,1483,b35db31e1ae3a04f2df6bbf2dec6eb07
1,67,28,64,1,6,9999,1306,b35db31e1ae3a04f2df6bbf2dec6eb07
1,68,55,19,1,4,9999,2798,b35db31e1ae3a04f2df6bbf2dec6eb07
1,69,28,46,1,6,9999,1510,b35db31e1ae3a04f2df6bbf2dec6eb07
1,70,91,46,1,3,9999,1801,b35db31e1ae3a04f2df6bbf2dec6eb07
1,71,82,73,1,4,9999,1831,b35db31e1ae3a04f2df6bbf2dec6eb07
1,72,91,37,1,5,9999,1562,b35db31e1ae3a04f2df6bbf2dec6eb07
1,73,28,37,1,4,9999,1628,b35db31e1ae3a04f2df6bbf2dec6eb07
1,74,19,55,1,5,9999,1594,b35db31e1ae3a04f2df6bbf2dec6eb07
1,75,10,28,1,2,9999,1989,b35db31e1ae3a04f2df6bbf2dec6eb07
1,76,82,46,1,2,9999,2222,b35db31e1ae3a04f2df6bbf2dec6eb07
1,77,10,19,1,3,9999,2206,b35db31e1ae3a04f2df6bbf2dec6eb07
1,78,91,73,1,1,9999,1462,b35db31e1ae3a04f2df6bbf2dec6eb07
1,79,37,82,1,6,9999,2000,b35db31e1ae3a04f2df6bbf2dec6eb07
1,80,82,10,1,3,9999,1901,b35db31e1ae3a04f2df6bbf2dec6eb07
1,81,64,55,1,5,9999,1377,b35db31e1ae3a04f2df6bbf2dec6eb07
1,82,28,91,1,1,9999,1870,b35db31e1ae3a04f2df6bbf2dec6eb07
1,83,55,28,1,4,9999,2599,b35db31e1ae3a04f2df6bbf2dec6eb07
1,84,46,10,1,3,9999,1793,b35db31e1ae3a04f2df6bbf2dec6eb07
1,85,28,10,1,3,9999,2096,b35db31e1ae3a04f2df6bbf2dec6eb07
1,86,46,91,1,2,9999,2308,b35db31e1ae3a04f2df6bbf2dec6eb07
1,87,46,73,1,7,9999,1412,b35db31e1ae3a04f2df6bbf2dec6eb07
1,88,73,28,1,3,9999,1393,b35db31e1ae3a04f2df6bbf2dec6eb07
1,89,82,55,1,2,9999,2078,b35db31e1ae3a04f2df6bbf2dec6eb07
1,90,46,46,1,6,9999,1225,b35db31e1ae3a04f2df6bbf2dec6eb07
1,91,46,64,1,7,9999,1460,b35db31e1ae3a04f2df6bbf2dec6eb07
1,92,46,37,1,6,9999,1279,b35db31e1ae3a04f2df6bbf2dec6eb07
1,93,82,28,1,5,9999,1735,b35db31e1ae3a04f2df6bbf2dec6eb07
1,94,55,91,1,4,9999,1753,b35db31e1ae3a04f2df6bbf2dec6eb07
1,95,19,91,1,4,9999,1876,b35db31e1ae3a04f2df6bbf2dec6eb07
1,96,55,55,1,4,9999,1532,b35db31e1ae3a04f2df6bbf2dec6eb07
1,97,64,19,1,2,9999,1548,b35db31e1ae3a04f2df6bbf2dec6eb07
1,98,82,37,1,7,9999,590,b35db31e1ae3a04f2df6bbf2dec6eb07
1,99,91,64,1,6,9999,1395,b35db31e1ae3a04f2df6bbf2dec6eb07
1,100,10,91,1,2,9999,1446,b35db31e1ae3a04f2df6bbf2dec6eb07
1,101,37,19,1,3,9999,1937,b35db31e1ae3a04f2df6bbf2dec6eb07
1,102,55,64,1,4,9999,1090,b35db31e1ae3a04f2df6bbf2dec6eb07
1,103,19,55,1,3,9999,1724,b35db31e1ae3a04f2df6bbf2dec6eb07
1,104,82,91,1,2,9999,1591,b35db31e1ae3a04f2df6bbf2dec6eb07
1,105,10,73,1,3,9999,1474,b35db31e1ae3a04f2df6bbf2dec6eb07
1,106,28,37,1,4,9999,1589,b35db31e1ae3a04f2df6bbf2dec6eb07
1,107,19,10,1,4,9999,1495,b35db31e1ae3a04f2df6bbf2dec6eb07
1,108,55,19,1,4,9999,1578,b35db31e1ae3a04f2df6bbf2dec6eb07
1,109,37,28,1,7,9999,1653,b35db31e1ae3a04f2df6bbf2dec6eb07
1,110,19,64,1,5,9999,1822,b35db31e1ae3a04f2df6bbf2dec6eb07
1,111,28,10,1,4,9999,1807,b35db31e1ae3a04f2df6bbf2dec6eb07
1,112,37,64,1,3,9999,1534,b35db31e1ae3a04f2df6bbf2dec6eb07
1,113,10,55,1,5,9999,1650,b35db31e1ae3a04f2df6bbf2dec6eb07
1,114,82,10,1,2,9999,1366,b35db31e1ae3a04f2df6bbf2dec6eb07
1,115,55,28,1,4,9999,1529,b35db31e1ae3a04f2df6bbf2dec6eb07
1,116,28,91,1,2,9999,1831,b35db31e1ae3a04f2df6bbf2dec6eb07
1,117,37,46,1,6,9999,1906,b35db31e1ae3a04f2df6bbf2dec6eb07
1,118,82,46,1,5,9999,1420,b35db31e1ae3a04f2df6bbf2dec6eb07
1,119,64,46,1,6,9999,1623,b35db31e1ae3a04f2df6bbf2dec6eb07
1,120,73,10,1,5,9999,1915,b35db31e1ae3a04f2df6bbf2dec6eb07
1,121,82,19,1,7,9999,1416,b35db31e1ae3a04f2df6bbf2dec6eb07
1,122,55,55,1,6,9999,1672,b35db31e1ae3a04f2df6bbf2dec6eb07
1,123,10,37,1,3,9999,1899,b35db31e1ae3a04f2df6bbf2dec6eb07
1,124,46,91,1,1,9999,1373,b35db31e1ae3a04f2df6bbf2dec6eb07
1,125,19,46,1,4,9999,2165,b35db31e1ae3a04f2df6bbf2dec6eb07
1,126,91,64,1,1,9999,1552,b35db31e1ae3a04f2df6bbf2dec6eb07
1,127,46,28,1,1,9999,1595,b35db31e1ae3a04f2df6bbf2dec6eb07
1,128,64,55,1,3,9999,1497,b35db31e1ae3a04f2df6bbf2dec6eb07
1,129,19,82,1,2,9999,1362,b35db31e1ae3a04f2df6bbf2dec6eb07
1,130,46,73,1,7,9999,1314,b35db31e1ae3a04f2df6bbf2dec6eb07
1,131,37,82,1,7,9999,1021,b35db31e1ae3a04f2df6bbf2dec6eb07
1,132,82,28,1,3,9999,1715,b35db31e1ae3a04f2df6bbf2dec6eb07
1,133,73,73,1,6,9999,1456,b35db31e1ae3a04f2df6bbf2dec6eb07
1,134,10,10,1,1,9999,1049,b35db31e1ae3a04f2df6bbf2dec6eb07
1,135,91,73,1,1,9999,1162,b35db31e1ae3a04f2df6bbf2dec6eb07
1,136,37,37,1,2,9999,1179,b35db31e1ae3a04f2df6bbf2dec6eb07
1,137,91,19,1,1,9999,1129,b35db31e1ae3a04f2df6bbf2dec6eb07
1,138,10,64,1,1,9999,1083,b35db31e1ae3a04f2df6bbf2dec6eb07
1,139,37,55,1,3,9999,1229,b35db31e1ae3a04f2df6bbf2dec6eb07
1,140,10,46,1,4,9999,1354,b35db31e1ae3a04f2df6bbf2dec6eb07
1,141,10,28,1,5,9999,1154,b35db31e1ae3a04f2df6bbf2dec6eb07
1,142,64,64,1,3,9999,1623,b35db31e1ae3a04f2df6bbf2dec6eb07
1,143,91,91,1,2,9999,1528,b35db31e1ae3a04f2df6bbf2dec6eb07
1,144,82,55,1,3,9999,1959,b35db31e1ae3a04f2df6bbf2dec6eb07
1,145,28,55,1,3,9999,1518,b35db31e1ae3a04f2df6bbf2dec6eb07
1,146,46,37,1,4,9999,1267,b35db31e1ae3a04f2df6bbf2dec6eb07
1,147,73,37,1,6,9999,1570,b35db31e1ae3a04f2df6bbf2dec6eb07
1,148,28,19,1,5,9999,2788,b35db31e1ae3a04f2df6bbf2dec6eb07
1,149,55,82,1,3,9999,1473,b35db31e1ae3a04f2df6bbf2dec6eb07
1,150,46,64,1,7,9999,2015,b35db31e1ae3a04f2df6bbf2dec6eb07
1,151,37,10,1,4,9999,1285,b35db31e1ae3a04f2df6bbf2dec6eb07
1,152,73,55,1,5,9999,1902,b35db31e1ae3a04f2df6bbf2dec6eb07
1,153,91,55,1,3,9999,1526,b35db31e1ae3a04f2df6bbf2dec6eb07
1,154,91,37,1,6,9999,1578,b35db31e1ae3a04f2df6bbf2dec6eb07
1,155,19,28,1,3,9999,2223,b35db31e1ae3a04f2df6bbf2dec6eb07
1,156,91,82,1,1,9999,1256,b35db31e1ae3a04f2df6bbf2dec6eb07
1,157,28,64,1,4,9999,2259,b35db31e1ae3a04f2df6bbf2dec6eb07
1,158,46,19,1,3,9999,1540,b35db31e1ae3a04f2df6bbf2dec6eb07
1,159,91,28,1,1,9999,1474,b35db31e1ae3a04f2df6bbf2dec6eb07
1,160,73,82,1,1,9999,1266,b35db31e1ae3a04f2df6bbf2dec6eb07
1,161,46,82,1,7,9999,1329,b35db31e1ae3a04f2df6bbf2dec6eb07
1,162,82,37,1,4,9999,1275,b35db31e1ae3a04f2df6bbf2dec6eb07
1,163,28,46,1,5,9999,1242,b35db31e1ae3a04f2df6bbf2dec6eb07
1,164,64,37,1,7,9999,1151,b35db31e1ae3a04f2df6bbf2dec6eb07
1,165,19,19,1,2,9999,1789,b35db31e1ae3a04f2df6bbf2dec6eb07
1,166,64,73,1,1,9999,930,b35db31e1ae3a04f2df6bbf2dec6eb07
1,167,55,73,1,3,9999,955,b35db31e1ae3a04f2df6bbf2dec6eb07
1,168,28,28,1,3,9999,1297,b35db31e1ae3a04f2df6bbf2dec6eb07
1,169,46,46,1,6,9999,1370,b35db31e1ae3a04f2df6bbf2dec6eb07
1,170,91,46,1,3,9999,2486,b35db31e1ae3a04f2df6bbf2dec6eb07
1,171,10,82,1,2,9999,1148,b35db31e1ae3a04f2df6bbf2dec6eb07
1,172,73,28,1,2,9999,1739,b35db31e1ae3a04f2df6bbf2dec6eb07
1,173,37,73,1,3,9999,1405,b35db31e1ae3a04f2df6bbf2dec6eb07
1,174,73,46,1,4,9999,1055,b35db31e1ae3a04f2df6bbf2dec6eb07
1,175,19,91,1,1,9999,1091,b35db31e1ae3a04f2df6bbf2dec6eb07
1,176,91,10,1,1,9999,1150,b35db31e1ae3a04f2df6bbf2dec6eb07
1,177,64,91,1,2,9999,1636,b35db31e1ae3a04f2df6bbf2dec6eb07
1,178,82,73,1,8,9999,1220,b35db31e1ae3a04f2df6bbf2dec6eb07
1,179,28,82,1,6,9999,1546,b35db31e1ae3a04f2df6bbf2dec6eb07
1,180,82,64,1,7,9999,1323,b35db31e1ae3a04f2df6bbf2dec6eb07
1,181,55,46,1,6,9999,1239,b35db31e1ae3a04f2df6bbf2dec6eb07
1,182,46,55,1,5,9999,1063,b35db31e1ae3a04f2df6bbf2dec6eb07
1,183,73,91,1,4,9999,1838,b35db31e1ae3a04f2df6bbf2dec6eb07
1,184,64,10,1,4,9999,1308,b35db31e1ae3a04f2df6bbf2dec6eb07
1,185,28,73,1,3,9999,2135,b35db31e1ae3a04f2df6bbf2dec6eb07
1,186,73,64,1,4,9999,1353,b35db31e1ae3a04f2df6bbf2dec6eb07
1,187,64,19,1,4,9999,1291,b35db31e1ae3a04f2df6bbf2dec6eb07
1,188,55,10,1,3,9999,1235,b35db31e1ae3a04f2df6bbf2dec6eb07
1,189,19,37,1,2,9999,1769,b35db31e1ae3a04f2df6bbf2dec6eb07
1,190,46,10,1,7,9999,1545,b35db31e1ae3a04f2df6bbf2dec6eb07
1,191,64,28,1,4,9999,2133,b35db31e1ae3a04f2df6bbf2dec6eb07
1,192,10,19,1,4,9999,1190,b35db31e1ae3a04f2df6bbf2dec6eb07
1,193,55,37,1,6,9999,1289,b35db31e1ae3a04f2df6bbf2dec6eb07
1,194,73,19,1,5,9999,2258,b35db31e1ae3a04f2df6bbf2dec6eb07
1,195,37,91,1,3,9999,1214,b35db31e1ae3a04f2df6bbf2dec6eb07
1,196,19,73,1,4,9999,2612,b35db31e1ae3a04f2df6bbf2dec6eb07
1,197,64,82,1,5,9999,1186,b35db31e1ae3a04f2df6bbf2dec6eb07
1,198,55,91,1,6,9999,998,b35db31e1ae3a04f2df6bbf2dec6eb07
1,199,82,82,1,8,9999,1271,b35db31e1ae3a04f2df6bbf2dec6eb07
1,200,82,28,1,4,9999,1918,b35db31e1ae3a04f2df6bbf2dec6eb07
1,201,46,46,1,6,9999,1262,b35db31e1ae3a04f2df6bbf2dec6eb07
1,202,82,73,1,6,9999,1174,b35db31e1ae3a04f2df6bbf2dec6eb07
1,203,55,19,1,5,9999,1073,b35db31e1ae3a04f2df6bbf2dec6eb07
1,204,55,91,1,3,9999,1238,b35db31e1ae3a04f2df6bbf2dec6eb07
1,205,73,91,1,4,9999,1785,b35db31e1ae3a04f2df6bbf2dec6eb07
1,206,91,28,1,5,9999,1548,b35db31e1ae3a04f2df6bbf2dec6eb07
1,207,19,55,1,2,9999,1195,b35db31e1ae3a04f2df6bbf2dec6eb07
1,208,73,64,1,2,9999,1246,b35db31e1ae3a04f2df6bbf2dec6eb07
1,209,91,10,1,2,9999,1692,b35db31e1ae3a04f2df6bbf2dec6eb07
1,210,46,19,1,4,9999,1407,b35db31e1ae3a04f2df6bbf2dec6eb07
1,211,64,64,1,5,9999,1463,b35db31e1ae3a04f2df6bbf2dec6eb07
1,212,73,37,1,6,9999,1285,b35db31e1ae3a04f2df6bbf2dec6eb07
1,213,46,64,1,6,9999,1678,b35db31e1ae3a04f2df6bbf2dec6eb07
1,214,10,82,1,3,9999,1209,b35db31e1ae3a04f2df6bbf2dec6eb07
1,215,10,28,1,5,9999,1443,b35db31e1ae3a04f2df6bbf2dec6eb07
1,216,37,55,1,6,9999,1418,b35db31e1ae3a04f2df6bbf2dec6eb07
1,217,55,55,1,7,9999,1515,b35db31e1ae3a04f2df6bbf2dec6eb07
1,218,64,82,1,7,9999,1166,b35db31e1ae3a04f2df6bbf2dec6eb07
1,219,10,64,1,4,9999,1283,b35db31e1ae3a04f2df6bbf2dec6eb07
1,220,28,37,1,5,9999,2006,b35db31e1ae3a04f2df6bbf2dec6eb07
1,221,82,64,1,3,9999,1342,b35db31e1ae3a04f2df6bbf2dec6eb07
1,222,64,19,1,4,9999,1980,b35db31e1ae3a04f2df6bbf2dec6eb07
1,223,46,37,1,4,9999,1025,b35db31e1ae3a04f2df6bbf2dec6eb07
1,224,73,10,1,3,9999,1301,b35db31e1ae3a04f2df6bbf2dec6eb07
1,225,46,91,1,4,9999,1781,b35db31e1ae3a04f2df6bbf2dec6eb07
1,226,73,55,1,6,9999,1296,b35db31e1ae3a04f2df6bbf2dec6eb07
1,227,55,82,1,7,9999,1607,b35db31e1ae3a04f2df6bbf2dec6eb07
1,228,37,73,1,6,9999,3235,b35db31e1ae3a04f2df6bbf2dec6eb07
1,229,91,55,1,6,9999,1150,b35db31e1ae3a04f2df6bbf2dec6eb07
1,230,82,46,1,7,9999,1364,b35db31e1ae3a04f2df6bbf2dec6eb07
1,231,28,91,1,2,9999,1483,b35db31e1ae3a04f2df6bbf2dec6eb07
1,232,55,46,1,4,9999,1411,b35db31e1ae3a04f2df6bbf2dec6eb07
1,233,82,37,1,4,9999,1476,b35db31e1ae3a04f2df6bbf2dec6eb07
1,234,10,46,1,3,9999,2517,b35db31e1ae3a04f2df6bbf2dec6eb07
1,235,91,46,1,4,9999,2322,b35db31e1ae3a04f2df6bbf2dec6eb07
1,236,55,64,1,4,9999,2141,b35db31e1ae3a04f2df6bbf2dec6eb07
1,237,10,73,1,2,9999,1464,b35db31e1ae3a04f2df6bbf2dec6eb07
1,238,19,91,1,7,9999,1402,b35db31e1ae3a04f2df6bbf2dec6eb07
1,239,19,37,1,6,9999,1414,b35db31e1ae3a04f2df6bbf2dec6eb07
1,240,73,73,1,4,9999,1298,b35db31e1ae3a04f2df6bbf2dec6eb07
1,241,73,46,1,6,9999,1331,b35db31e1ae3a04f2df6bbf2dec6eb07
1,242,82,55,1,7,9999,1171,b35db31e1ae3a04f2df6bbf2dec6eb07
1,243,64,10,1,6,9999,1689,b35db31e1ae3a04f2df6bbf2dec6eb07
1,244,37,91,1,2,9999,1487,b35db31e1ae3a04f2df6bbf2dec6eb07
1,245,37,46,1,5,9999,1603,b35db31e1ae3a04f2df6bbf2dec6eb07
1,246,64,91,1,5,9999,1525,b35db31e1ae3a04f2df6bbf2dec6eb07
1,247,46,10,1,5,9999,2126,b35db31e1ae3a04f2df6bbf2dec6eb07
1,248,19,64,1,3,9999,1503,b35db31e1ae3a04f2df6bbf2dec6eb07
1,249,64,73,1,4,9999,1853,b35db31e1ae3a04f2df6bbf2dec6eb07
1,250,73,19,1,4,9999,1804,b35db31e1ae3a04f2df6bbf2dec6eb07
1,251,28,64,1,5,9999,1530,b35db31e1ae3a04f2df6bbf2dec6eb07
1,252,91,37,1,2,9999,1643,b35db31e1ae3a04f2df6bbf2dec6eb07
1,253,28,46,1,3,9999,1615,b35db31e1ae3a04f2df6bbf2dec6eb07
1,254,64,37,1,3,9999,1400,b35db31e1ae3a04f2df6bbf2dec6eb07
1,255,64,28,1,5,9999,1352,b35db31e1ae3a04f2df6bbf2dec6eb07
1,256,73,28,1,6,9999,1139,b35db31e1ae3a04f2df6bbf2dec6eb07
1,257,37,19,1,4,9999,2041,b35db31e1ae3a04f2df6bbf2dec6eb07
1,258,37,82,1,2,9999,1504,b35db31e1ae3a04f2df6bbf2dec6eb07
1,259,19,73,1,3,9999,1494,b35db31e1ae3a04f2df6bbf2dec6eb07
1,260,64,55,1,4,9999,1269,b35db31e1ae3a04f2df6bbf2dec6eb07
1,261,37,64,1,5,9999,1251,b35db31e1ae3a04f2df6bbf2dec6eb07
1,262,28,28,1,5,9999,1697,b35db31e1ae3a04f2df6bbf2dec6eb07
1,263,28,82,1,5,9999,1775,b35db31e1ae3a04f2df6bbf2dec6eb07
1,264,55,37,1,5,9999,1229,b35db31e1ae3a04f2df6bbf2dec6eb07
1,265,37,37,1,6,9999,1420,b35db31e1ae3a04f2df6bbf2dec6eb07
1,266,10,19,1,3,9999,1449,b35db31e1ae3a04f2df6bbf2dec6eb07
1,267,19,82,1,5,9999,1312,b35db31e1ae3a04f2df6bbf2dec6eb07
1,268,19,10,1,4,9999,1236,b35db31e1ae3a04f2df6bbf2dec6eb07
1,269,10,10,1,8,9999,1535,b35db31e1ae3a04f2df6bbf2dec6eb07
1,270,55,73,1,3,9999,1450,b35db31e1ae3a04f2df6bbf2dec6eb07
1,271,10,91,1,1,9999,1548,b35db31e1ae3a04f2df6bbf2dec6eb07
1,272,19,28,1,3,9999,1568,b35db31e1ae3a04f2df6bbf2dec6eb07
1,273,19,19,1,4,9999,1443,b35db31e1ae3a04f2df6bbf2dec6eb07
1,274,91,64,1,2,9999,1736,b35db31e1ae3a04f2df6bbf2dec6eb07
1,275,37,10,1,4,9999,1619,b35db31e1ae3a04f2df6bbf2dec6eb07
1,276,82,10,1,6,9999,1308,b35db31e1ae3a04f2df6bbf2dec6eb07
1,277,91,19,1,8,9999,1132,b35db31e1ae3a04f2df6bbf2dec6eb07
1,278,46,73,1,6,9999,1382,b35db31e1ae3a04f2df6bbf2dec6eb07
1,279,82,91,1,8,9999,1139,b35db31e1ae3a04f2df6bbf2dec6eb07
1,280,28,55,1,3,9999,1400,b35db31e1ae3a04f2df6bbf2dec6eb07
1,281,46,82,1,5,9999,1531,b35db31e1ae3a04f2df6bbf2dec6eb07
1,282,64,46,1,6,9999,1436,b35db31e1ae3a04f2df6bbf2dec6eb07
1,283,10,37,1,4,9999,1865,b35db31e1ae3a04f2df6bbf2dec6eb07
1,284,73,82,1,2,9999,1626,b35db31e1ae3a04f2df6bbf2dec6eb07
1,285,91,82,1,1,9999,1391,b35db31e1ae3a04f2df6bbf2dec6eb07
1,286,37,28,1,5,9999,2918,b35db31e1ae3a04f2df6bbf2dec6eb07
1,287,82,19,1,3,9999,1348,b35db31e1ae3a04f2df6bbf2dec6eb07
1,288,91,91,1,2,9999,1328,b35db31e1ae3a04f2df6bbf2dec6eb07
1,289,46,55,1,3,9999,1899,b35db31e1ae3a04f2df6bbf2dec6eb07
1,290,55,28,1,6,9999,1297,b35db31e1ae3a04f2df6bbf2dec6eb07
1,291,10,55,1,4,9999,1826,b35db31e1ae3a04f2df6bbf2dec6eb07
1,292,46,28,1,4,9999,1768,b35db31e1ae3a04f2df6bbf2dec6eb07
1,293,28,73,1,2,9999,1810,b35db31e1ae3a04f2df6bbf2dec6eb07
1,294,55,10,1,2,9999,1608,b35db31e1ae3a04f2df6bbf2dec6eb07
1,295,19,46,1,3,9999,1626,b35db31e1ae3a04f2df6bbf2dec6eb07
1,296,91,73,1,1,9999,1993,b35db31e1ae3a04f2df6bbf2dec6eb07
1,297,82,82,1,3,9999,1729,b35db31e1ae3a04f2df6bbf2dec6eb07
1,298,28,10,1,2,9999,1558,b35db31e1ae3a04f2df6bbf2dec6eb07
1,299,28,19,1,6,9999,2359,b35db31e1ae3a04f2df6bbf2dec6eb07
1,300,73,10,1,3,9999,2369,b35db31e1ae3a04f2df6bbf2dec6eb07
1,301,19,82,1,1,9999,1156,b35db31e1ae3a04f2df6bbf2dec6eb07
1,302,28,46,1,3,9999,1175,b35db31e1ae3a04f2df6bbf2dec6eb07
1,303,91,73,1,3,9999,1665,b35db31e1ae3a04f2df6bbf2dec6eb07
1,304,28,28,1,2,9999,1266,b35db31e1ae3a04f2df6bbf2dec6eb07
1,305,82,10,1,3,9999,1734,b35db31e1ae3a04f2df6bbf2dec6eb07
1,306,82,28,1,7,9999,1333,b35db31e1ae3a04f2df6bbf2dec6eb07
1,307,55,73,1,5,9999,1374,b35db31e1ae3a04f2df6bbf2dec6eb07
1,308,37,10,1,3,9999,1381,b35db31e1ae3a04f2df6bbf2dec6eb07
1,309,82,91,1,2,9999,2534,b35db31e1ae3a04f2df6bbf2dec6eb07
1,310,46,82,1,6,9999,1755,b35db31e1ae3a04f2df6bbf2dec6eb07
1,311,64,82,1,7,9999,1231,b35db31e1ae3a04f2df6bbf2dec6eb07
1,312,55,10,1,4,9999,1856,b35db31e1ae3a04f2df6bbf2dec6eb07
1,313,19,28,1,3,9999,2606,b35db31e1ae3a04f2df6bbf2dec6eb07
1,314,91,28,1,4,9999,2524,b35db31e1ae3a04f2df6bbf2dec6eb07
1,315,82,55,1,5,9999,1211,b35db31e1ae3a04f2df6bbf2dec6eb07
1,316,64,55,1,6,9999,1222,b35db31e1ae3a04f2df6bbf2dec6eb07
1,317,73,55,1,7,9999,1697,b35db31e1ae3a04f2df6bbf2dec6eb07
1,318,82,82,1,5,9999,1818,b35db31e1ae3a04f2df6bbf2dec6eb07
1,319,37,55,1,3,9999,1884,b35db31e1ae3a04f2df6bbf2dec6eb07
1,320,28,91,1,2,9999,1390,b35db31e1ae3a04f2df6bbf2dec6eb07
1,321,10,55,1,3,9999,1759,b35db31e1ae3a04f2df6bbf2dec6eb07
1,322,55,19,1,2,9999,1670,b35db31e1ae3a04f2df6bbf2dec6eb07
1,323,55,82,1,4,9999,1400,b35db31e1ae3a04f2df6bbf2dec6eb07
1,324,91,91,1,2,9999,1551,b35db31e1ae3a04f2df6bbf2dec6eb07
1,325,37,73,1,3,9999,1773,b35db31e1ae3a04f2df6bbf2dec6eb07
1,326,82,73,1,5,9999,1366,b35db31e1ae3a04f2df6bbf2dec6eb07
1,327,28,73,1,4,9999,1568,b35db31e1ae3a04f2df6bbf2dec6eb07
1,328,28,55,1,5,9999,1658,b35db31e1ae3a04f2df6bbf2dec6eb07
1,329,19,19,1,4,9999,2485,b35db31e1ae3a04f2df6bbf2dec6eb07
1,330,19,10,1,3,9999,1412,b35db31e1ae3a04f2df6bbf2dec6eb07
1,331,91,46,1,4,9999,2472,b35db31e1ae3a04f2df6bbf2dec6eb07
1,332,28,37,1,4,9999,1327,b35db31e1ae3a04f2df6bbf2dec6eb07
1,333,46,19,1,5,9999,1325,b35db31e1ae3a04f2df6bbf2dec6eb07
1,334,37,91,1,3,9999,1673,b35db31e1ae3a04f2df6bbf2dec6eb07
1,335,10,64,1,3,9999,1777,b35db31e1ae3a04f2df6bbf2dec6eb07
1,336,10,19,1,4,9999,1683,b35db31e1ae3a04f2df6bbf2dec6eb07
1,337,19,46,1,3,9999,1558,b35db31e1ae3a04f2df6bbf2dec6eb07
1,338,19,37,1,6,9999,1305,b35db31e1ae3a04f2df6bbf2dec6eb07
1,339,28,19,1,6,9999,1452,b35db31e1ae3a04f2df6bbf2dec6eb07
1,340,73,82,1,2,9999,1611,b35db31e1ae3a04f2df6bbf2dec6eb07
1,341,64,73,1,2,9999,1504,b35db31e1ae3a04f2df6bbf2dec6eb07
1,342,19,73,1,4,9999,2527,b35db31e1ae3a04f2df6bbf2dec6eb07
1,343,28,10,1,3,9999,1279,b35db31e1ae3a04f2df6bbf2dec6eb07
1,344,73,19,1,4,9999,1564,b35db31e1ae3a04f2df6bbf2dec6eb07
1,345,37,28,1,4,9999,1563,b35db31e1ae3a04f2df6bbf2dec6eb07
1,346,91,64,1,2,9999,1476,b35db31e1ae3a04f2df6bbf2dec6eb07
1,347,19,91,1,4,9999,1615,b35db31e1ae3a04f2df6bbf2dec6eb07
1,348,64,64,1,5,9999,2009,b35db31e1ae3a04f2df6bbf2dec6eb07
1,349,10,28,1,3,9999,1064,b35db31e1ae3a04f2df6bbf2dec6eb07
1,350,46,91,1,3,9999,1185,b35db31e1ae3a04f2df6bbf2dec6eb07
1,351,55,55,1,4,9999,1230,b35db31e1ae3a04f2df6bbf2dec6eb07
1,352,73,37,1,4,9999,1034,b35db31e1ae3a04f2df6bbf2dec6eb07
1,353,73,64,1,5,9999,1184,b35db31e1ae3a04f2df6bbf2dec6eb07
1,354,19,64,1,4,9999,1700,b35db31e1ae3a04f2df6bbf2dec6eb07
1,355,55,28,1,3,9999,1265,b35db31e1ae3a04f2df6bbf2dec6eb07
1,356,64,19,1,8,9999,1300,b35db31e1ae3a04f2df6bbf2dec6eb07
1,357,55,64,1,6,9999,1266,b35db31e1ae3a04f2df6bbf2dec6eb07
1,358,55,91,1,5,9999,1663,b35db31e1ae3a04f2df6bbf2dec6eb07
1,359,64,46,1,4,9999,1372,b35db31e1ae3a04f2df6bbf2dec6eb07
1,360,73,91,1,5,9999,1687,b35db31e1ae3a04f2df6bbf2dec6eb07
1,361,28,64,1,3,9999,1400,b35db31e1ae3a04f2df6bbf2dec6eb07
1,362,46,46,1,6,9999,1325,b35db31e1ae3a04f2df6bbf2dec6eb07
1,363,64,37,1,6,9999,1569,b35db31e1ae3a04f2df6bbf2dec6eb07
1,364,46,10,1,6,9999,1440,b35db31e1ae3a04f2df6bbf2dec6eb07
1,365,82,46,1,6,9999,1678,b35db31e1ae3a04f2df6bbf2dec6eb07
1,366,73,28,1,7,9999,1326,b35db31e1ae3a04f2df6bbf2dec6eb07
1,367,91,10,1,6,9999,1290,b35db31e1ae3a04f2df6bbf2dec6eb07
1,368,10,73,1,1,9999,1264,b35db31e1ae3a04f2df6bbf2dec6eb07
1,369,73,46,1,3,9999,1975,b35db31e1ae3a04f2df6bbf2dec6eb07
1,370,55,37,1,4,9999,1160,b35db31e1ae3a04f2df6bbf2dec6eb07
1,371,10,91,1,1,9999,1136,b35db31e1ae3a04f2df6bbf2dec6eb07
1,372,82,37,1,1,9999,1135,b35db31e1ae3a04f2df6bbf2dec6eb07
1,373,91,55,1,3,9999,1502,b35db31e1ae3a04f2df6bbf2dec6eb07
1,374,46,37,1,4,9999,1293,b35db31e1ae3a04f2df6bbf2dec6eb07
1,375,46,64,1,4,9999,1329,b35db31e1ae3a04f2df6bbf2dec6eb07
1,376,37,82,1,2,9999,1194,b35db31e1ae3a04f2df6bbf2dec6eb07
1,377,37,64,1,5,9999,1753,b35db31e1ae3a04f2df6bbf2dec6eb07
1,378,37,19,1,3,9999,1455,b35db31e1ae3a04f2df6bbf2dec6eb07
1,379,28,82,1,3,9999,1860,b35db31e1ae3a04f2df6bbf2dec6eb07
1,380,82,19,1,1,9999,1350,b35db31e1ae3a04f2df6bbf2dec6eb07
1,381,46,55,1,3,9999,1389,b35db31e1ae3a04f2df6bbf2dec6eb07
1,382,10,46,1,2,9999,1085,b35db31e1ae3a04f2df6bbf2dec6eb07
1,383,19,55,1,7,9999,1428,b35db31e1ae3a04f2df6bbf2dec6eb07
1,384,91,82,1,3,9999,1719,b35db31e1ae3a04f2df6bbf2dec6eb07
1,385,10,82,1,2,9999,1779,b35db31e1ae3a04f2df6bbf2dec6eb07
1,386,10,10,1,2,9999,1638,b35db31e1ae3a04f2df6bbf2dec6eb07
1,387,64,10,1,3,9999,2070,b35db31e1ae3a04f2df6bbf2dec6eb07
1,388,37,37,1,3,9999,1361,b35db31e1ae3a04f2df6bbf2dec6eb07
1,389,55,46,1,3,9999,1644,b35db31e1ae3a04f2df6bbf2dec6eb07
1,390,73,73,1,3,9999,1497,b35db31e1ae3a04f2df6bbf2dec6eb07
1,391,46,73,1,4,9999,1436,b35db31e1ae3a04f2df6bbf2dec6eb07
1,392,82,64,1,4,9999,1207,b35db31e1ae3a04f2df6bbf2dec6eb07
1,393,91,37,1,4,9999,1562,b35db31e1ae3a04f2df6bbf2dec6eb07
1,394,91,19,1,4,9999,1335,b35db31e1ae3a04f2df6bbf2dec6eb07
1,395,10,37,1,3,9999,2074,b35db31e1ae3a04f2df6bbf2dec6eb07
1,396,64,91,1,1,9999,1058,b35db31e1ae3a04f2df6bbf2dec6eb07
1,397,37,46,1,3,9999,1483,b35db31e1ae3a04f2df6bbf2dec6eb07
1,398,46,28,1,4,9999,1111,b35db31e1ae3a04f2df6bbf2dec6eb07
1,399,64,28,1,4,9999,1319,b35db31e1ae3a04f2df6bbf2dec6eb07
4,0,28,55,2,3,0,8661,7bbf712e42b98ee4d03af551e8ff1282
4,1,91,73,4,1,0,844,7bbf712e42b98ee4d03af551e8ff1282
4,2,28,19,1,2,0,3491,7bbf712e42b98ee4d03af551e8ff1282
4,3,64,28,3,4,0,1575,7bbf712e42b98ee4d03af551e8ff1282
4,4,10,10,1,3,0,2203,7bbf712e42b98ee4d03af551e8ff1282
4,5,73,46,3,2,0,2953,7bbf712e42b98ee4d03af551e8ff1282
4,6,19,19,1,1,1,1194,7bbf712e42b98ee4d03af551e8ff1282
4,7,46,10,1,2,0,607,7bbf712e42b98ee4d03af551e8ff1282
4,8,55,10,3,1,0,894,7bbf712e42b98ee4d03af551e8ff1282
4,9,46,37,1,1,1,981,7bbf712e42b98ee4d03af551e8ff1282
4,10,37,91,2,1,0,1169,7bbf712e42b98ee4d03af551e8ff1282
4,11,55,19,3,4,0,2896,7bbf712e42b98ee4d03af551e8ff1282
4,12,64,82,4,1,0,1395,7bbf712e42b98ee4d03af551e8ff1282
4,13,10,55,2,4,0,2130,7bbf712e42b98ee4d03af551e8ff1282
4,14,37,55,2,3,0,2726,7bbf712e42b98ee4d03af551e8ff1282
4,15,46,28,1,2,0,1163,7bbf712e42b98ee4d03af551e8ff1282
4,16,64,37,3,3,1,2192,7bbf712e42b98ee4d03af551e8ff1282
4,17,28,10,1,4,0,3184,7bbf712e42b98ee4d03af551e8ff1282
4,18,19,28,1,4,0,830,7bbf712e42b98ee4d03af551e8ff1282
4,19,28,28,1,1,1,740,7bbf712e42b98ee4d03af551e8ff1282
4,20,73,28,3,3,1,666,7bbf712e42b98ee4d03af551e8ff1282
4,21,91,64,4,4,1,1306,7bbf712e42b98ee4d03af551e8ff1282
4,22,28,82,2,1,0,1079,7bbf712e42b98ee4d03af551e8ff1282
4,23,55,28,3,3,1,1474,7bbf712e42b98ee4d03af551e8ff1282
4,24,64,73,4,3,0,1882,7bbf712e42b98ee4d03af551e8ff1282
4,25,10,28,1,1,1,2608,7bbf712e42b98ee4d03af551e8ff1282
4,26,19,64,2,2,1,680,7bbf712e42b98ee4d03af551e8ff1282
4,27,73,10,3,4,0,2031,7bbf712e42b98ee4d03af551e8ff1282
4,28,37,64,2,2,1,3367,7bbf712e42b98ee4d03af551e8ff1282
4,29,28,73,2,2,1,1262,7bbf712e42b98ee4d03af551e8ff1282
4,30,37,46,1,2,0,789,7bbf712e42b98ee4d03af551e8ff1282
4,31,55,73,4,3,0,1062,7bbf712e42b98ee4d03af551e8ff1282
4,32,46,73,2,4,0,1086,7bbf712e42b98ee4d03af551e8ff1282
4,33,46,64,2,2,1,1344,7bbf712e42b98ee4d03af551e8ff1282
4,34,10,46,1,1,1,918,7bbf712e42b98ee4d03af551e8ff1282
4,35,73,73,4,4,1,1106,7bbf712e42b98ee4d03af551e8ff1282
4,36,46,55,2,3,0,972,7bbf712e42b98ee4d03af551e8ff1282
4,37,55,55,4,3,0,1249,7bbf712e42b98ee4d03af551e8ff1282
4,38,82,73,4,4,1,828,7bbf712e42b98ee4d03af551e8ff1282
4,39,55,46,3,4,0,987,7bbf712e42b98ee4d03af551e8ff1282
4,40,82,28,3,4,0,903,7bbf712e42b98ee4d03af551e8ff1282
4,41,37,37,1,3,0,1007,7bbf712e42b98ee4d03af551e8ff1282
4,42,10,19,1,1,1,498,7bbf712e42b98ee4d03af551e8ff1282
4,43,91,91,4,4,1,1420,7bbf712e42b98ee4d03af551e8ff1282
4,44,37,10,1,2,0,1200,7bbf712e42b98ee4d03af551e8ff1282
4,45,82,91,4,4,1,924,7bbf712e42b98ee4d03af551e8ff1282
4,46,19,37,1,1,1,963,7bbf712e42b98ee4d03af551e8ff1282
4,47,64,64,4,3,0,955,7bbf712e42b98ee4d03af551e8ff1282
4,48,46,19,1,4,0,1018,7bbf712e42b98ee4d03af551e8ff1282
4,49,28,46,1,1,1,1443,7bbf712e42b98ee4d03af551e8ff1282
4,50,28,64,2,1,0,507,7bbf712e42b98ee4d03af551e8ff1282
4,51,19,73,2,1,0,755,7bbf712e42b98ee4d03af551e8ff1282
4,52,73,82,4,4,1,967,7bbf712e42b98ee4d03af551e8ff1282
4,53,82,46,3,4,0,1079,7bbf712e42b98ee4d03af551e8ff1282
4,54,64,19,3,4,0,912,7bbf712e42b98ee4d03af551e8ff1282
4,55,10,73,2,1,0,787,7bbf712e42b98ee4d03af551e8ff1282
4,56,91,19,3,4,0,860,7bbf712e42b98ee4d03af551e8ff1282
4,57,64,91,4,4,1,682,7bbf712e42b98ee4d03af551e8ff1282
4,58,55,64,4,3,0,579,7bbf712e42b98ee4d03af551e8ff1282
4,59,73,91,4,3,0,1082,7bbf712e42b98ee4d03af551e8ff1282
4,60,10,37,1,1,1,956,7bbf712e42b98ee4d03af551e8ff1282
4,61,19,46,1,2,0,514,7bbf712e42b98ee4d03af551e8ff1282
4,62,19,10,1,1,1,523,7bbf712e42b98ee4d03af551e8ff1282
4,63,82,82,4,3,0,933,7bbf712e42b98ee4d03af551e8ff1282
4,64,10,64,2,1,0,726,7bbf712e42b98ee4d03af551e8ff1282
4,65,73,19,3,3,1,2375,7bbf712e42b98ee4d03af551e8ff1282
4,66,37,82,2,2,1,1768,7bbf712e42b98ee4d03af551e8ff1282
4,67,55,91,4,2,0,1548,7bbf712e42b98ee4d03af551e8ff1282
4,68,37,73,2,2,1,1709,7bbf712e42b98ee4d03af551e8ff1282
4,69,37,28,1,1,1,1245,7bbf712e42b98ee4d03af551e8ff1282
4,70,46,82,2,2,1,1421,7bbf712e42b98ee4d03af551e8ff1282
4,71,82,10,3,3,1,1639,7bbf712e42b98ee4d03af551e8ff1282
4,72,82,64,4,4,1,1315,7bbf712e42b98ee4d03af551e8ff1282
4,73,82,37,3,3,1,1287,7bbf712e42b98ee4d03af551e8ff1282
4,74,73,37,3,3,1,1068,7bbf712e42b98ee4d03af551e8ff1282
4,75,64,10,3,3,1,1062,7bbf712e42b98ee4d03af551e8ff1282
4,76,46,91,2,4,0,1042,7bbf712e42b98ee4d03af551e8ff1282
4,77,55,37,3,1,0,1418,7bbf712e42b98ee4d03af551e8ff1282
4,78,64,55,4,3,0,848,7bbf712e42b98ee4d03af551e8ff1282
4,79,28,37,1,2,0,1178,7bbf712e42b98ee4d03af551e8ff1282
4,80,73,64,4,3,0,2730,7bbf712e42b98ee4d03af551e8ff1282
4,81,91,10,3,4,0,1918,7bbf712e42b98ee4d03af551e8ff1282
4,82,19,55,2,1,0,1520,7bbf712e42b98ee4d03af551e8ff1282
4,83,64,46,3,2,0,807,7bbf712e42b98ee4d03af551e8ff1282
4,84,28,91,2,1,0,1097,7bbf712e42b98ee4d03af551e8ff1282
4,85,19,91,2,1,0,992,7bbf712e42b98ee4d03af551e8ff1282
4,86,37,19,1,1,1,1416,7bbf712e42b98ee4d03af551e8ff1282
4,87,19,82,2,2,1,1226,7bbf712e42b98ee4d03af551e8ff1282
4,88,10,82,2,2,1,712,7bbf712e42b98ee4d03af551e8ff1282
4,89,82,55,4,1,0,1038,7bbf712e42b98ee4d03af551e8ff1282
4,90,55,82,4,2,0,1348,7bbf712e42b98ee4d03af551e8ff1282
4,91,82,19,3,4,0,1951,7bbf712e42b98ee4d03af551e8ff1282
4,92,91,37,3,4,0,1351,7bbf712e42b98ee4d03af551e8ff1282
4,93,91,28,3,3,1,1749,7bbf712e42b98ee4d03af551e8ff1282
4,94,46,46,1,3,0,866,7bbf712e42b98ee4d03af551e8ff1282
4,95,91,46,3,4,0,1801,7bbf712e42b98ee4d03af551e8ff1282
4,96,91,55,4,3,0,961,7bbf712e42b98ee4d03af551e8ff1282
4,97,73,55,4,3,0,1378,7bbf712e42b98ee4d03af551e8ff1282
4,98,10,91,2,1,0,1243,7bbf712e42b98ee4d03af551e8ff1282
4,99,91,82,4,2,0,593,7bbf712e42b98ee4d03af551e8ff1282
4,100,82,37,3,1,0,1473,7bbf712e42b98ee4d03af551e8ff1282
4,101,10,37,1,1,1,1306,7bbf712e42b98ee4d03af551e8ff1282
4,102,10,10,1,1,1,881,7bbf712e42b98ee4d03af551e8ff1282
4,103,28,91,2,2,1,1196,7bbf712e42b98ee4d03af551e8ff1282
4,104,64,82,4,3,0,1434,7bbf712e42b98ee4d03af551e8ff1282
4,105,91,64,4,4,1,2478,7bbf712e42b98ee4d03af551e8ff1282
4,106,28,10,1,1,1,2023,7bbf712e42b98ee4d03af551e8ff1282
4,107,55,91,4,2,0,2316,7bbf712e42b98ee4d03af551e8ff1282
4,108,19,10,1,1,1,2027,7bbf712e42b98ee4d03af551e8ff1282
4,109,28,37,1,2,0,1195,7bbf712e42b98ee4d03af551e8ff1282
4,110,73,37,3,1,0,1272,7bbf712e42b98ee4d03af551e8ff1282
4,111,10,55,2,1,0,1201,7bbf712e42b98ee4d03af551e8ff1282
4,112,73,55,4,3,0,1515,7bbf712e42b98ee4d03af551e8ff1282
4,113,73,91,4,2,0,1689,7bbf712e42b98ee4d03af551e8ff1282
4,114,19,91,2,2,1,1225,7bbf712e42b98ee4d03af551e8ff1282
4,115,10,46,1,1,1,1211,7bbf712e42b98ee4d03af551e8ff1282
4,116,55,82,4,3,0,1884,7bbf712e42b98ee4d03af551e8ff1282
4,117,19,19,1,1,1,1149,7bbf712e42b98ee4d03af551e8ff1282
4,118,55,37,3,3,1,1808,7bbf712e42b98ee4d03af551e8ff1282
4,119,55,55,4,3,0,1192,7bbf712e42b98ee4d03af551e8ff1282
4,120,28,55,2,1,0,1420,7bbf712e42b98ee4d03af551e8ff1282
4,121,37,82,2,2,1,1114,7bbf712e42b98ee4d03af551e8ff1282
4,122,73,46,3,3,1,1913,7bbf712e42b98ee4d03af551e8ff1282
4,123,19,37,1,1,1,1605,7bbf712e42b98ee4d03af551e8ff1282
4,124,64,28,3,3,1,1459,7bbf712e42b98ee4d03af551e8ff1282
4,125,46,19,1,3,0,1253,7bbf712e42b98ee4d03af551e8ff1282
4,126,82,19,3,4,0,1869,7bbf712e42b98ee4d03af551e8ff1282
4,127,82,91,4,4,1,2181,7bbf712e42b98ee4d03af551e8ff1282
4,128,46,91,2,2,1,1626,7bbf712e42b98ee4d03af551e8ff1282
4,129,28,46,1,1,1,1433,7bbf712e42b98ee4d03af551e8ff1282
4,130,46,82,2,1,0,1262,7bbf712e42b98ee4d03af551e8ff1282
4,131,64,55,4,1,0,1116,7bbf712e42b98ee4d03af551e8ff1282
4,132,64,10,3,1,0,1611,7bbf712e42b98ee4d03af551e8ff1282
4,133,91,37,3,3,1,2069,7bbf712e42b98ee4d03af551e8ff1282
4,134,37,19,1,1,1,1523,7bbf712e42b98ee4d03af551e8ff1282
4,135,73,19,3,4,0,1245,7bbf712e42b98ee4d03af551e8ff1282
4,136,37,64,2,2,1,1411,7bbf712e42b98ee4d03af551e8ff1282
4,137,64,73,4,2,0,1103,7bbf712e42b98ee4d03af551e8ff1282
4,138,91,19,3,1,0,1854,7bbf712e42b98ee4d03af551e8ff1282
4,139,10,91,2,2,1,1367,7bbf712e42b98ee4d03af551e8ff1282
4,140,73,28,3,3,1,2418,7bbf712e42b98ee4d03af551e8ff1282
4,141,10,64,2,2,1,1622,7bbf712e42b98ee4d03af551e8ff1282
4,142,37,28,1,1,1,957,7bbf712e42b98ee4d03af551e8ff1282
4,143,73,82,4,2,0,1735,7bbf712e42b98ee4d03af551e8ff1282
4,144,82,46,3,3,1,2560,7bbf712e42b98ee4d03af551e8ff1282
4,145,64,37,3,3,1,857,7bbf712e42b98ee4d03af551e8ff1282
4,146,55,73,4,1,0,1157,7bbf712e42b98ee4d03af551e8ff1282
4,147,46,46,1,1,1,1466,7bbf712e42b98ee4d03af551e8ff1282
4,148,19,28,1,1,1,984,7bbf712e42b98ee4d03af551e8ff1282
4,149,82,10,3,3,1,1350,7bbf712e42b98ee4d03af551e8ff1282
4,150,82,64,4,4,1,1913,7bbf712e42b98ee4d03af551e8ff1282
4,151,91,91,4,4,1,1294,7bbf712e42b98ee4d03af551e8ff1282
4,152,19,82,2,2,1,899,7bbf712e42b98ee4d03af551e8ff1282
4,153,19,73,2,2,1,987,7bbf712e42b98ee4d03af551e8ff1282
4,154,10,28,1,1,1,1386,7bbf712e42b98ee4d03af551e8ff1282
4,155,28,82,2,2,1,1257,7bbf712e42b98ee4d03af551e8ff1282
4,156,46,28,1,1,1,1589,7bbf712e42b98ee4d03af551e8ff1282
4,157,19,64,2,2,1,971,7bbf712e42b98ee4d03af551e8ff1282
4,158,37,10,1,1,1,1107,7bbf712e42b98ee4d03af551e8ff1282
4,159,82,28,3,3,1,1187,7bbf712e42b98ee4d03af551e8ff1282
4,160,91,10,3,3,1,1832,7bbf712e42b98ee4d03af551e8ff1282
4,161,64,46,3,3,1,2019,7bbf712e42b98ee4d03af551e8ff1282
4,162,37,46,1,3,0,1313,7bbf712e42b98ee4d03af551e8ff1282
4,163,73,64,4,2,0,1742,7bbf712e42b98ee4d03af551e8ff1282
4,164,28,19,1,1,1,1335,7bbf712e42b98ee4d03af551e8ff1282
4,165,37,91,2,2,1,1216,7bbf712e42b98ee4d03af551e8ff1282
4,166,37,37,1,1,1,1631,7bbf712e42b98ee4d03af551e8ff1282
4,167,91,73,4,3,0,1321,7bbf712e42b98ee4d03af551e8ff1282
4,168,10,19,1,1,1,923,7bbf712e42b98ee4d03af551e8ff1282
4,169,37,55,2,3,0,2063,7bbf712e42b98ee4d03af551e8ff1282
4,170,91,28,3,3,1,1995,7bbf712e42b98ee4d03af551e8ff1282
4,171,64,64,4,2,0,1036,7bbf712e42b98ee4d03af551e8ff1282
4,172,46,55,2,2,1,1738,7bbf712e42b98ee4d03af551e8ff1282
4,173,73,10,3,1,0,894,7bbf712e42b98ee4d03af551e8ff1282
4,174,91,82,4,3,0,1253,7bbf712e42b98ee4d03af551e8ff1282
4,175,46,64,2,2,1,1429,7bbf712e42b98ee4d03af551e8ff1282
4,176,55,46,3,3,1,1630,7bbf712e42b98ee4d03af551e8ff1282
4,177,28,28,1,1,1,913,7bbf712e42b98ee4d03af551e8ff1282
4,178,64,91,4,2,0,1364,7bbf712e42b98ee4d03af551e8ff1282
4,179,55,19,3,1,0,1038,7bbf712e42b98ee4d03af551e8ff1282
4,180,91,55,4,3,0,1210,7bbf712e42b98ee4d03af551e8ff1282
4,181,46,73,2,2,1,1117,7bbf712e42b98ee4d03af551e8ff1282
4,182,82,73,4,2,0,1214,7bbf712e42b98ee4d03af551e8ff1282
4,183,82,55,4,4,1,1708,7bbf712e42b98ee4d03af551e8ff1282
4,184,19,46,1,1,1,1406,7bbf712e42b98ee4d03af551e8ff1282
4,185,46,10,1,1,1,939,7bbf712e42b98ee4d03af551e8ff1282
4,186,19,55,2,1,0,1369,7bbf712e42b98ee4d03af551e8ff1282
4,187,55,28,3,1,0,850,7bbf712e42b98ee4d03af551e8ff1282
4,188,64,19,3,1,0,949,7bbf712e42b98ee4d03af551e8ff1282
4,189,55,10,3,1,0,1000,7bbf712e42b98ee4d03af551e8ff1282
4,190,10,82,2,2,1,1072,7bbf712e42b98ee4d03af551e8ff1282
4,191,28,73,2,2,1,873,7bbf712e42b98ee4d03af551e8ff1282
4,192,10,73,2,2,1,766,7bbf712e42b98ee4d03af551e8ff1282
4,193,73,73,4,4,1,1661,7bbf712e42b98ee4d03af551e8ff1282
4,194,28,64,2,2,1,1612,7bbf712e42b98ee4d03af551e8ff1282
4,195,46,37,1,3,0,1475,7bbf712e42b98ee4d03af551e8ff1282
4,196,91,46,3,4,0,1981,7bbf712e42b98ee4d03af551e8ff1282
4,197,82,82,4,4,1,2177,7bbf712e42b98ee4d03af551e8ff1282
4,198,55,64,4,3,0,1102,7bbf712e42b98ee4d03af551e8ff1282
4,199,37,73,2,2,1,1408,7bbf712e42b98ee4d03af551e8ff1282
4,200,19,28,1,1,1,972,7bbf712e42b98ee4d03af551e8ff1282
4,201,55,19,3,1,0,716,7bbf712e42b98ee4d03af551e8ff1282
4,202,55,46,3,3,1,1734,7bbf712e42b98ee4d03af551e8ff1282
4,203,19,46,1,3,0,1716,7bbf712e42b98ee4d03af551e8ff1282
4,204,64,73,4,4,1,1754,7bbf712e42b98ee4d03af551e8ff1282
4,205,91,37,3,3,1,1448,7bbf712e42b98ee4d03af551e8ff1282
4,206,37,91,2,2,1,1492,7bbf712e42b98ee4d03af551e8ff1282
4,207,19,10,1,1,1,843,7bbf712e42b98ee4d03af551e8ff1282
4,208,91,19,3,3,1,1481,7bbf712e42b98ee4d03af551e8ff1282
4,209,28,73,2,2,1,1146,7bbf712e42b98ee4d03af551e8ff1282
4,210,37,46,1,2,0,1699,7bbf712e42b98ee4d03af551e8ff1282
4,211,10,55,2,2,1,1209,7bbf712e42b98ee4d03af551e8ff1282
4,212,10,10,1,1,1,906,7bbf712e42b98ee4d03af551e8ff1282
4,213,37,19,1,1,1,1566,7bbf712e42b98ee4d03af551e8ff1282
4,214,19,19,1,1,1,1005,7bbf712e42b98ee4d03af551e8ff1282
4,215,19,55,2,2,1,1365,7bbf712e42b98ee4d03af551e8ff1282
4,216,64,19,3,3,1,2227,7bbf712e42b98ee4d03af551e8ff1282
4,217,73,55,4,3,0,1075,7bbf712e42b98ee4d03af551e8ff1282
4,218,46,10,1,1,1,699,7bbf712e42b98ee4d03af551e8ff1282
4,219,28,46,1,2,0,831,7bbf712e42b98ee4d03af551e8ff1282
4,220,46,91,2,2,1,1281,7bbf712e42b98ee4d03af551e8ff1282
4,221,28,91,2,4,0,1856,7bbf712e42b98ee4d03af551e8ff1282
4,222,55,82,4,4,1,1923,7bbf712e42b98ee4d03af551e8ff1282
4,223,82,28,3,3,1,1511,7bbf712e42b98ee4d03af551e8ff1282
4,224,37,37,1,3,0,2073,7bbf712e42b98ee4d03af551e8ff1282
4,225,37,73,2,2,1,1259,7bbf712e42b98ee4d03af551e8ff1282
4,226,82,37,3,3,1,1379,7bbf712e42b98ee4d03af551e8ff1282
4,227,55,91,4,4,1,1516,7bbf712e42b98ee4d03af551e8ff1282
4,228,73,10,3,3,1,1586,7bbf712e42b98ee4d03af551e8ff1282
4,229,46,37,1,3,0,875,7bbf712e42b98ee4d03af551e8ff1282
4,230,19,37,1,1,1,1041,7bbf712e42b98ee4d03af551e8ff1282
4,231,64,10,3,1,0,1055,7bbf712e42b98ee4d03af551e8ff1282
4,232,91,64,4,4,1,2289,7bbf712e42b98ee4d03af551e8ff1282
4,233,73,82,4,4,1,987,7bbf712e42b98ee4d03af551e8ff1282
4,234,82,46,3,3,1,993,7bbf712e42b98ee4d03af551e8ff1282
4,235,10,73,2,2,1,1066,7bbf712e42b98ee4d03af551e8ff1282
4,236,82,10,3,3,1,1559,7bbf712e42b98ee4d03af551e8ff1282
4,237,37,55,2,4,0,2147,7bbf712e42b98ee4d03af551e8ff1282
4,238,73,19,3,3,1,1124,7bbf712e42b98ee4d03af551e8ff1282
4,239,64,91,4,2,0,1325,7bbf712e42b98ee4d03af551e8ff1282
4,240,64,55,4,3,0,1685,7bbf712e42b98ee4d03af551e8ff1282
4,241,46,55,2,4,0,1511,7bbf712e42b98ee4d03af551e8ff1282
4,242,64,28,3,2,0,1494,7bbf712e42b98ee4d03af551e8ff1282
4,243,55,28,3,3,1,959,7bbf712e42b98ee4d03af551e8ff1282
4,244,46,28,1,3,0,862,7bbf712e42b98ee4d03af551e8ff1282
4,245,73,64,4,3,0,737,7bbf712e42b98ee4d03af551e8ff1282
4,246,28,55,2,4,0,1075,7bbf712e42b98ee4d03af551e8ff1282
4,247,10,37,1,1,1,1646,7bbf712e42b98ee4d03af551e8ff1282
4,248,64,46,3,3,1,887,7bbf712e42b98ee4d03af551e8ff1282
4,249,19,64,2,2,1,933,7bbf712e42b98ee4d03af551e8ff1282
4,250,10,28,1,1,1,829,7bbf712e42b98ee4d03af551e8ff1282
4,251,10,64,2,2,1,1233,7bbf712e42b98ee4d03af551e8ff1282
4,252,46,73,2,2,1,993,7bbf712e42b98ee4d03af551e8ff1282
4,253,19,82,2,2,1,859,7bbf712e42b98ee4d03af551e8ff1282
4,254,28,28,1,1,1,796,7bbf712e42b98ee4d03af551e8ff1282
4,255,28,19,1,1,1,766,7bbf712e42b98ee4d03af551e8ff1282
4,256,73,28,3,3,1,1463,7bbf712e42b98ee4d03af551e8ff1282
4,257,91,73,4,4,1,1030,7bbf712e42b98ee4d03af551e8ff1282
4,258,28,82,2,2,1,1053,7bbf712e42b98ee4d03af551e8ff1282
4,259,28,37,1,3,0,1478,7bbf712e42b98ee4d03af551e8ff1282
4,260,91,28,3,3,1,1157,7bbf712e42b98ee4d03af551e8ff1282
4,261,82,55,4,4,1,1606,7bbf712e42b98ee4d03af551e8ff1282
4,262,55,64,4,4,1,1346,7bbf712e42b98ee4d03af551e8ff1282
4,263,64,37,3,3,1,1178,7bbf712e42b98ee4d03af551e8ff1282
4,264,73,37,3,3,1,832,7bbf712e42b98ee4d03af551e8ff1282
4,265,64,64,4,3,0,686,7bbf712e42b98ee4d03af551e8ff1282
4,266,82,82,4,4,1,1278,7bbf712e42b98ee4d03af551e8ff1282
4,267,73,91,4,4,1,1162,7bbf712e42b98ee4d03af551e8ff1282
4,268,73,73,4,3,0,882,7bbf712e42b98ee4d03af551e8ff1282
4,269,10,46,1,1,1,1159,7bbf712e42b98ee4d03af551e8ff1282
4,270,46,64,2,2,1,957,7bbf712e42b98ee4d03af551e8ff1282
4,271,82,73,4,4,1,1350,7bbf712e42b98ee4d03af551e8ff1282
4,272,91,55,4,3,0,1271,7bbf712e42b98ee4d03af551e8ff1282
4,273,64,82,4,4,1,1331,7bbf712e42b98ee4d03af551e8ff1282
4,274,91,82,4,4,1,1454,7bbf712e42b98ee4d03af551e8ff1282
4,275,55,73,4,2,0,1730,7bbf712e42b98ee4d03af551e8ff1282
4,276,73,46,3,3,1,1158,7bbf712e42b98ee4d03af551e8ff1282
4,277,37,10,1,1,1,1045,7bbf712e42b98ee4d03af551e8ff1282
4,278,55,10,3,1,0,720,7bbf712e42b98ee4d03af551e8ff1282
4,279,46,19,1,1,1,783,7bbf712e42b98ee4d03af551e8ff1282
4,280,37,28,1,1,1,1308,7bbf712e42b98ee4d03af551e8ff1282
4,281,37,64,2,4,0,1771,7bbf712e42b98ee4d03af551e8ff1282
4,282,91,91,4,4,1,1067,7bbf712e42b98ee4d03af551e8ff1282
4,283,91,10,3,3,1,941,7bbf712e42b98ee4d03af551e8ff1282
4,284,82,19,3,3,1,1021,7bbf712e42b98ee4d03af551e8ff1282
4,285,19,73,2,2,1,1021,7bbf712e42b98ee4d03af551e8ff1282
4,286,55,55,4,4,1,1843,7bbf712e42b98ee4d03af551e8ff1282
4,287,55,37,3,3,1,1926,7bbf712e42b98ee4d03af551e8ff1282
4,288,82,64,4,2,0,1988,7bbf712e42b98ee4d03af551e8ff1282
4,289,10,91,2,1,0,1024,7bbf712e42b98ee4d03af551e8ff1282
4,290,28,64,2,2,1,1202,7bbf712e42b98ee4d03af551e8ff1282
4,291,46,82,2,2,1,1106,7bbf712e42b98ee4d03af551e8ff1282
4,292,10,82,2,2,1,896,7bbf712e42b98ee4d03af551e8ff1282
4,293,91,46,3,3,1,1089,7bbf712e42b98ee4d03af551e8ff1282
4,294,37,82,2,2,1,1200,7bbf712e42b98ee4d03af551e8ff1282
4,295,19,91,2,2,1,1281,7bbf712e42b98ee4d03af551e8ff1282
4,296,46,46,1,1,1,1472,7bbf712e42b98ee4d03af551e8ff1282
4,297,28,10,1,1,1,829,7bbf712e42b98ee4d03af551e8ff1282
4,298,82,91,4,4,1,1027,7bbf712e42b98ee4d03af551e8ff1282
4,299,10,19,1,1,1,1102,7bbf712e42b98ee4d03af551e8ff1282
4,300,19,91,2,1,0,837,7bbf712e42b98ee4d03af551e8ff1282
4,301,82,28,3,3,1,1327,7bbf712e42b98ee4d03af551e8ff1282
4,302,91,37,3,3,1,755,7bbf712e42b98ee4d03af551e8ff1282
4,303,82,73,4,4,1,1050,7bbf712e42b98ee4d03af551e8ff1282
4,304,55,55,4,2,0,1243,7bbf712e42b98ee4d03af551e8ff1282
4,305,46,19,1,3,0,1294,7bbf712e42b98ee4d03af551e8ff1282
4,306,91,19,3,3,1,1187,7bbf712e42b98ee4d03af551e8ff1282
4,307,37,82,2,2,1,1068,7bbf712e42b98ee4d03af551e8ff1282
4,308,46,55,2,2,1,860,7bbf712e42b98ee4d03af551e8ff1282
4,309,73,46,3,2,0,913,7bbf712e42b98ee4d03af551e8ff1282
4,310,55,19,3,3,1,1389,7bbf712e42b98ee4d03af551e8ff1282
4,311,28,10,1,1,1,852,7bbf712e42b98ee4d03af551e8ff1282
4,312,64,28,3,3,1,1566,7bbf712e42b98ee4d03af551e8ff1282
4,313,73,10,3,3,1,1147,7bbf712e42b98ee4d03af551e8ff1282
4,314,73,19,3,3,1,828,7bbf712e42b98ee4d03af551e8ff1282
4,315,64,73,4,4,1,1212,7bbf712e42b98ee4d03af551e8ff1282
4,316,19,37,1,2,0,1209,7bbf712e42b98ee4d03af551e8ff1282
4,317,19,10,1,1,1,740,7bbf712e42b98ee4d03af551e8ff1282
4,318,28,55,2,2,1,1475,7bbf712e42b98ee4d03af551e8ff1282
4,319,73,55,4,4,1,1309,7bbf712e42b98ee4d03af551e8ff1282
4,320,10,64,2,2,1,1114,7bbf712e42b98ee4d03af551e8ff1282
4,321,91,73,4,4,1,1067,7bbf712e42b98ee4d03af551e8ff1282
4,322,19,46,1,2,0,1123,7bbf712e42b98ee4d03af551e8ff1282
4,323,55,46,3,4,0,1813,7bbf712e42b98ee4d03af551e8ff1282
4,324,55,82,4,4,1,2017,7bbf712e42b98ee4d03af551e8ff1282
4,325,37,73,2,2,1,1353,7bbf712e42b98ee4d03af551e8ff1282
4,326,46,91,2,2,1,1216,7bbf712e42b98ee4d03af551e8ff1282
4,327,10,37,1,1,1,1520,7bbf712e42b98ee4d03af551e8ff1282
4,328,91,10,3,3,1,839,7bbf712e42b98ee4d03af551e8ff1282
4,329,91,64,4,4,1,1652,7bbf712e42b98ee4d03af551e8ff1282
4,330,10,19,1,1,1,1010,7bbf712e42b98ee4d03af551e8ff1282
4,331,37,28,1,1,1,905,7bbf712e42b98ee4d03af551e8ff1282
4,332,28,19,1,1,1,799,7bbf712e42b98ee4d03af551e8ff1282
4,333,28,91,2,2,1,1431,7bbf712e42b98ee4d03af551e8ff1282
4,334,82,64,4,4,1,1156,7bbf712e42b98ee4d03af551e8ff1282
4,335,19,64,2,2,1,1031,7bbf712e42b98ee4d03af551e8ff1282
4,336,28,28,1,1,1,1184,7bbf712e42b98ee4d03af551e8ff1282
4,337,82,46,3,3,1,1059,7bbf712e42b98ee4d03af551e8ff1282
4,338,82,55,4,3,0,1125,7bbf712e42b98ee4d03af551e8ff1282
4,339,10,73,2,2,1,1121,7bbf712e42b98ee4d03af551e8ff1282
4,340,46,28,1,1,1,1288,7bbf712e42b98ee4d03af551e8ff1282
4,341,46,37,1,1,1,836,7bbf712e42b98ee4d03af551e8ff1282
4,342,82,10,3,1,0,745,7bbf712e42b98ee4d03af551e8ff1282
4,343,64,37,3,3,1,972,7bbf712e42b98ee4d03af551e8ff1282
4,344,64,91,4,2,0,1789,7bbf712e42b98ee4d03af551e8ff1282
4,345,19,55,2,2,1,1379,7bbf712e42b98ee4d03af551e8ff1282
4,346,19,82,2,2,1,910,7bbf712e42b98ee4d03af551e8ff1282
4,347,19,73,2,2,1,747,7bbf712e42b98ee4d03af551e8ff1282
4,348,64,19,3,1,0,880,7bbf712e42b98ee4d03af551e8ff1282
4,349,73,82,4,3,0,1093,7bbf712e42b98ee4d03af551e8ff1282
4,350,82,37,3,3,1,1478,7bbf712e42b98ee4d03af551e8ff1282
4,351,64,55,4,3,0,925,7bbf712e42b98ee4d03af551e8ff1282
4,352,37,64,2,2,1,1243,7bbf712e42b98ee4d03af551e8ff1282
4,353,55,28,3,3,1,1347,7bbf712e42b98ee4d03af551e8ff1282
4,354,82,19,3,3,1,1088,7bbf712e42b98ee4d03af551e8ff1282
4,355,55,73,4,4,1,1529,7bbf712e42b98ee4d03af551e8ff1282
4,356,37,37,1,1,1,1461,7bbf712e42b98ee4d03af551e8ff1282
4,357,46,46,1,1,1,1214,7bbf712e42b98ee4d03af551e8ff1282
4,358,28,37,1,1,1,908,7bbf712e42b98ee4d03af551e8ff1282
4,359,46,82,2,2,1,918,7bbf712e42b98ee4d03af551e8ff1282
4,360,46,10,1,1,1,1038,7bbf712e42b98ee4d03af551e8ff1282
4,361,46,64,2,2,1,1448,7bbf712e42b98ee4d03af551e8ff1282
4,362,73,28,3,3,1,1157,7bbf712e42b98ee4d03af551e8ff1282
4,363,37,55,2,4,0,1630,7bbf712e42b98ee4d03af551e8ff1282
4,364,73,91,4,4,1,1342,7bbf712e42b98ee4d03af551e8ff1282
4,365,73,64,4,4,1,1107,7bbf712e42b98ee4d03af551e8ff1282
4,366,64,82,4,4,1,1383,7bbf712e42b98ee4d03af551e8ff1282
4,367,28,73,2,2,1,1448,7bbf712e42b98ee4d03af551e8ff1282
4,368,37,19,1,1,1,1215,7bbf712e42b98ee4d03af551e8ff1282
4,369,73,73,4,4,1,1740,7bbf712e42b98ee4d03af551e8ff1282
4,370,55,91,4,2,0,1258,7bbf712e42b98ee4d03af551e8ff1282
4,371,10,28,1,1,1,1032,7bbf712e42b98ee4d03af551e8ff1282
4,372,37,10,1,1,1,799,7bbf712e42b98ee4d03af551e8ff1282
4,373,19,19,1,1,1,783,7bbf712e42b98ee4d03af551e8ff1282
4,374,28,46,1,1,1,1275,7bbf712e42b98ee4d03af551e8ff1282
4,375,82,91,4,4,1,1280,7bbf712e42b98ee4d03af551e8ff1282
4,376,10,55,2,2,1,1465,7bbf712e42b98ee4d03af551e8ff1282
4,377,19,28,1,1,1,874,7bbf712e42b98ee4d03af551e8ff1282
4,378,10,10,1,1,1,843,7bbf712e42b98ee4d03af551e8ff1282
4,379,91,91,4,4,1,991,7bbf712e42b98ee4d03af551e8ff1282
4,380,55,10,3,3,1,1439,7bbf712e42b98ee4d03af551e8ff1282
4,381,55,37,3,3,1,1414,7bbf712e42b98ee4d03af551e8ff1282
4,382,55,64,4,2,0,1149,7bbf712e42b98ee4d03af551e8ff1282
4,383,82,82,4,4,1,1055,7bbf712e42b98ee4d03af551e8ff1282
4,384,91,55,4,4,1,1386,7bbf712e42b98ee4d03af551e8ff1282
4,385,91,46,3,3,1,1636,7bbf712e42b98ee4d03af551e8ff1282
4,386,37,46,1,2,0,951,7bbf712e42b98ee4d03af551e8ff1282
4,387,28,64,2,2,1,1186,7bbf712e42b98ee4d03af551e8ff1282
4,388,37,91,2,2,1,1249,7bbf712e42b98ee4d03af551e8ff1282
4,389,10,82,2,2,1,853,7bbf712e42b98ee4d03af551e8ff1282
4,390,73,37,3,3,1,1167,7bbf712e42b98ee4d03af551e8ff1282
4,391,46,73,2,4,0,1102,7bbf712e42b98ee4d03af551e8ff1282
4,392,10,91,2,2,1,992,7bbf712e42b98ee4d03af551e8ff1282
4,393,64,10,3,1,0,876,7bbf712e42b98ee4d03af551e8ff1282
4,394,91,82,4,4,1,1249,7bbf712e42b98ee4d03af551e8ff1282
4,395,10,46,1,2,0,1399,7bbf712e42b98ee4d03af551e8ff1282
4,396,28,82,2,2,1,976,7bbf712e42b98ee4d03af551e8ff1282
4,397,91,28,3,3,1,1206,7bbf712e42b98ee4d03af551e8ff1282
4,398,64,46,3,3,1,1043,7bbf712e42b98ee4d03af551e8ff1282
4,399,64,64,4,4,1,1343,7bbf712e42b98ee4d03af551e8ff1282
4,0,46,10,1,2,0,1142,2c46eda094feff3754af304e1ece6221
4,1,10,55,2,2,1,1891,2c46eda094feff3754af304e1ece6221
4,2,28,10,1,1,1,1206,2c46eda094feff3754af304e1ece6221
4,3,19,55,2,2,1,998,2c46eda094feff3754af304e1ece6221
4,4,37,46,1,3,0,1424,2c46eda094feff3754af304e1ece6221
4,5,46,46,1,1,1,1016,2c46eda094feff3754af304e1ece6221
4,6,28,73,2,1,0,1062,2c46eda094feff3754af304e1ece6221
4,7,64,82,4,2,0,1276,2c46eda094feff3754af304e1ece6221
4,8,91,37,3,3,1,1201,2c46eda094feff3754af304e1ece6221
4,9,28,91,2,2,1,1584,2c46eda094feff3754af304e1ece6221
4,10,19,73,2,2,1,1213,2c46eda094feff3754af304e1ece6221
4,11,82,46,3,4,0,1901,2c46eda094feff3754af304e1ece6221
4,12,37,37,1,1,1,1182,2c46eda094feff3754af304e1ece6221
4,13,55,10,3,3,1,1676,2c46eda094feff3754af304e1ece6221
4,14,73,64,4,4,1,1011,2c46eda094feff3754af304e1ece6221
4,15,19,64,2,2,1,1406,2c46eda094feff3754af304e1ece6221
4,16,64,46,3,3,1,2239,2c46eda094feff3754af304e1ece6221
4,17,10,28,1,1,1,1385,2c46eda094feff3754af304e1ece6221
4,18,28,55,2,1,0,1488,2c46eda094feff3754af304e1ece6221
4,19,46,73,2,4,0,1553,2c46eda094feff3754af304e1ece6221
4,20,19,37,1,1,1,1205,2c46eda094feff3754af304e1ece6221
4,21,10,19,1,1,1,1026,2c46eda094feff3754af304e1ece6221
4,22,55,46,3,3,1,1895,2c46eda094feff3754af304e1ece6221
4,23,55,55,4,3,0,1100,2c46eda094feff3754af304e1ece6221
4,24,91,73,4,4,1,1023,2c46eda094feff3754af304e1ece6221
4,25,64,10,3,3,1,1809,2c46eda094feff3754af304e1ece6221
4,26,91,91,4,4,1,1254,2c46eda094feff3754af304e1ece6221
4,27,37,28,1,1,1,1137,2c46eda094feff3754af304e1ece6221
4,28,73,46,3,4,0,1827,2c46eda094feff3754af304e1ece6221
4,29,82,10,3,3,1,1144,2c46eda094feff3754af304e1ece6221
4,30,82,82,4,4,1,1393,2c46eda094feff3754af304e1ece6221
4,31,55,64,4,2,0,1165,2c46eda094feff3754af304e1ece6221
4,32,73,37,3,3,1,1101,2c46eda094feff3754af304e1ece6221
4,33,82,28,3,3,1,1138,2c46eda094feff3754af304e1ece6221
4,34,91,82,4,4,1,861,2c46eda094feff3754af304e1ece6221
4,35,64,64,4,4,1,1583,2c46eda094feff3754af304e1ece6221
4,36,28,28,1,1,1,1139,2c46eda094feff3754af304e1ece6221
4,37,55,37,3,1,0,1042,2c46eda094feff3754af304e1ece6221
4,38,64,37,3,3,1,1775,2c46eda094feff3754af304e1ece6221
4,39,64,28,3,1,0,1133,2c46eda094feff3754af304e1ece6221
4,40,82,19,3,3,1,2299,2c46eda094feff3754af304e1ece6221
4,41,82,73,4,4,1,1554,2c46eda094feff3754af304e1ece6221
4,42,64,91,4,4,1,1635,2c46eda094feff3754af304e1ece6221
4,43,10,10,1,1,1,1139,2c46eda094feff3754af304e1ece6221
4,44,46,64,2,2,1,1124,2c46eda094feff3754af304e1ece6221
4,45,28,64,2,2,1,1211,2c46eda094feff3754af304e1ece6221
4,46,73,28,3,3,1,1010,2c46eda094feff3754af304e1ece6221
4,47,64,73,4,4,1,1618,2c46eda094feff3754af304e1ece6221
4,48,10,73,2,2,1,1591,2c46eda094feff3754af304e1ece6221
4,49,91,19,3,3,1,1001,2c46eda094feff3754af304e1ece6221
4,50,19,82,2,2,1,1649,2c46eda094feff3754af304e1ece6221
4,51,28,46,1,2,0,1539,2c46eda094feff3754af304e1ece6221
4,52,46,91,2,2,1,2039,2c46eda094feff3754af304e1ece6221
4,53,55,73,4,2,0,1712,2c46eda094feff3754af304e1ece6221
4,54,37,82,2,2,1,1466,2c46eda094feff3754af304e1ece6221
4,55,37,73,2,2,1,1110,2c46eda094feff3754af304e1ece6221
4,56,46,82,2,2,1,1410,2c46eda094feff3754af304e1ece6221
4,57,37,10,1,1,1,1279,2c46eda094feff3754af304e1ece6221
4,58,28,19,1,1,1,1370,2c46eda094feff3754af304e1ece6221
4,59,55,19,3,3,1,1571,2c46eda094feff3754af304e1ece6221
4,60,91,28,3,3,1,1119,2c46eda094feff3754af304e1ece6221
4,61,37,64,2,2,1,2969,2c46eda094feff3754af304e1ece6221
4,62,55,28,3,3,1,1501,2c46eda094feff3754af304e1ece6221
4,63,91,55,4,4,1,1452,2c46eda094feff3754af304e1ece6221
4,64,19,28,1,1,1,1166,2c46eda094feff3754af304e1ece6221
4,65,10,82,2,2,1,1181,2c46eda094feff3754af304e1ece6221
4,66,10,64,2,2,1,1201,2c46eda094feff3754af304e1ece6221
4,67,82,64,4,4,1,1197,2c46eda094feff3754af304e1ece6221
4,68,46,19,1,3,0,1668,2c46eda094feff3754af304e1ece6221
4,69,82,37,3,3,1,1035,2c46eda094feff3754af304e1ece6221
4,70,10,91,2,2,1,990,2c46eda094feff3754af304e1ece6221
4,71,37,55,2,4,0,1490,2c46eda094feff3754af304e1ece6221
4,72,46,37,1,2,0,2721,2c46eda094feff3754af304e1ece6221
4,73,73,10,3,3,1,1158,2c46eda094feff3754af304e1ece6221
4,74,91,10,3,3,1,1501,2c46eda094feff3754af304e1ece6221
4,75,37,19,1,1,1,1374,2c46eda094feff3754af304e1ece6221
4,76,37,91,2,2,1,1003,2c46eda094feff3754af304e1ece6221
4,77,82,55,4,4,1,1300,2c46eda094feff3754af304e1ece6221
4,78,73,91,4,4,1,1153,2c46eda094feff3754af304e1ece6221
4,79,46,28,1,1,1,1806,2c46eda094feff3754af304e1ece6221
4,80,19,91,2,2,1,1009,2c46eda094feff3754af304e1ece6221
4,81,10,37,1,1,1,1008,2c46eda094feff3754af304e1ece6221
4,82,19,46,1,2,0,1836,2c46eda094feff3754af304e1ece6221
4,83,19,19,1,1,1,910,2c46eda094feff3754af304e1ece6221
4,84,19,10,1,1,1,981,2c46eda094feff3754af304e1ece6221
4,85,55,91,4,4,1,1662,2c46eda094feff3754af304e1ece6221
4,86,10,46,1,2,0,2344,2c46eda094feff3754af304e1ece6221
4,87,55,82,4,4,1,1819,2c46eda094feff3754af304e1ece6221
4,88,73,82,4,4,1,887,2c46eda094feff3754af304e1ece6221
4,89,64,19,3,3,1,1228,2c46eda094feff3754af304e1ece6221
4,90,82,91,4,4,1,883,2c46eda094feff3754af304e1ece6221
4,91,73,55,4,4,1,1664,2c46eda094feff3754af304e1ece6221
4,92,73,19,3,3,1,1656,2c46eda094feff3754af304e1ece6221
4,93,64,55,4,4,1,1007,2c46eda094feff3754af304e1ece6221
4,94,91,64,4,4,1,1058,2c46eda094feff3754af304e1ece6221
4,95,91,46,3,4,0,1253,2c46eda094feff3754af304e1ece6221
4,96,28,37,1,1,1,2122,2c46eda094feff3754af304e1ece6221
4,97,28,82,2,2,1,1318,2c46eda094feff3754af304e1ece6221
4,98,46,55,2,2,1,1219,2c46eda094feff3754af304e1ece6221
4,99,73,73,4,4,1,1090,2c46eda094feff3754af304e1ece6221
4,100,46,28,1,3,0,1137,2c46eda094feff3754af304e1ece6221
4,101,37,28,1,1,1,852,2c46eda094feff3754af304e1ece6221
4,102,64,73,4,4,1,1227,2c46eda094feff3754af304e1ece6221
4,103,91,10,3,3,1,1066,2c46eda094feff3754af304e1ece6221
4,104,73,28,3,3,1,853,2c46eda094feff3754af304e1ece6221
4,105,73,46,3,4,0,1109,2c46eda094feff3754af304e1ece6221
4,106,46,37,1,3,0,1011,2c46eda094feff3754af304e1ece6221
4,107,19,10,1,1,1,858,2c46eda094feff3754af304e1ece6221
4,108,91,73,4,4,1,812,2c46eda094feff3754af304e1ece6221
4,109,82,10,3,3,1,1096,2c46eda094feff3754af304e1ece6221
4,110,82,37,3,4,0,1048,2c46eda094feff3754af304e1ece6221
4,111,82,55,4,4,1,1244,2c46eda094feff3754af304e1ece6221
4,112,28,55,2,2,1,1475,2c46eda094feff3754af304e1ece6221
4,113,19,46,1,2,0,1324,2c46eda094feff3754af304e1ece6221
4,114,82,19,3,3,1,1413,2c46eda094feff3754af304e1ece6221
4,115,64,91,4,4,1,1070,2c46eda094feff3754af304e1ece6221
4,116,28,46,1,2,0,1396,2c46eda094feff3754af304e1ece6221
4,117,19,82,2,2,1,1021,2c46eda094feff3754af304e1ece6221
4,118,91,64,4,4,1,1480,2c46eda094feff3754af304e1ece6221
4,119,28,19,1,1,1,1097,2c46eda094feff3754af304e1ece6221
4,120,28,91,2,2,1,1355,2c46eda094feff3754af304e1ece6221
4,121,91,82,4,4,1,1020,2c46eda094feff3754af304e1ece6221
4,122,55,91,4,4,1,832,2c46eda094feff3754af304e1ece6221
4,123,55,37,3,3,1,1083,2c46eda094feff3754af304e1ece6221
4,124,10,64,2,2,1,1097,2c46eda094feff3754af304e1ece6221
4,125,19,91,2,2,1,839,2c46eda094feff3754af304e1ece6221
4,126,73,91,4,4,1,1014,2c46eda094feff3754af304e1ece6221
4,127,82,28,3,3,1,869,2c46eda094feff3754af304e1ece6221
4,128,91,19,3,3,1,1154,2c46eda094feff3754af304e1ece6221
4,129,28,10,1,1,1,1484,2c46eda094feff3754af304e1ece6221
4,130,10,28,1,1,1,722,2c46eda094feff3754af304e1ece6221
4,131,91,55,4,4,1,1583,2c46eda094feff3754af304e1ece6221
4,132,46,73,2,4,0,780,2c46eda094feff3754af304e1ece6221
4,133,73,19,3,3,1,971,2c46eda094feff3754af304e1ece6221
4,134,37,37,1,1,1,1571,2c46eda094feff3754af304e1ece6221
4,135,37,64,2,2,1,834,2c46eda094feff3754af304e1ece6221
4,136,55,19,3,1,0,1023,2c46eda094feff3754af304e1ece6221
4,137,73,82,4,4,1,1802,2c46eda094feff3754af304e1ece6221
4,138,46,91,2,4,0,822,2c46eda094feff3754af304e1ece6221
4,139,19,28,1,1,1,957,2c46eda094feff3754af304e1ece6221
4,140,64,10,3,3,1,1686,2c46eda094feff3754af304e1ece6221
4,141,10,73,2,2,1,1071,2c46eda094feff3754af304e1ece6221
4,142,82,91,4,4,1,1238,2c46eda094feff3754af304e1ece6221
4,143,55,73,4,4,1,990,2c46eda094feff3754af304e1ece6221
4,144,64,46,3,3,1,1193,2c46eda094feff3754af304e1ece6221
4,145,37,91,2,2,1,1502,2c46eda094feff3754af304e1ece6221
4,146,28,64,2,2,1,1079,2c46eda094feff3754af304e1ece6221
4,147,37,10,1,1,1,943,2c46eda094feff3754af304e1ece6221
4,148,19,37,1,1,1,1655,2c46eda094feff3754af304e1ece6221
4,149,28,28,1,1,1,1291,2c46eda094feff3754af304e1ece6221
4,150,37,55,2,2,1,1687,2c46eda094feff3754af304e1ece6221
4,151,82,82,4,4,1,1228,2c46eda094feff3754af304e1ece6221
4,152,73,55,4,4,1,1157,2c46eda094feff3754af304e1ece6221
4,153,46,10,1,3,0,1577,2c46eda094feff3754af304e1ece6221
4,154,55,46,3,3,1,1285,2c46eda094feff3754af304e1ece6221
4,155,10,91,2,1,0,1026,2c46eda094feff3754af304e1ece6221
4,156,73,37,3,3,1,1835,2c46eda094feff3754af304e1ece6221
4,157,28,37,1,1,1,1839,2c46eda094feff3754af304e1ece6221
4,158,82,46,3,3,1,1390,2c46eda094feff3754af304e1ece6221
4,159,64,64,4,4,1,1086,2c46eda094feff3754af304e1ece6221
4,160,73,64,4,4,1,1202,2c46eda094feff3754af304e1ece6221
4,161,28,73,2,2,1,1353,2c46eda094feff3754af304e1ece6221
4,162,82,73,4,4,1,1248,2c46eda094feff3754af304e1ece6221
4,163,55,55,4,4,1,1158,2c46eda094feff3754af304e1ece6221
4,164,64,19,3,3,1,1049,2c46eda094feff3754af304e1ece6221
4,165,28,82,2,2,1,1388,2c46eda094feff3754af304e1ece6221
4,166,73,73,4,4,1,995,2c46eda094feff3754af304e1ece6221
4,167,55,10,3,3,1,1384,2c46eda094feff3754af304e1ece6221
4,168,10,10,1,1,1,1537,2c46eda094feff3754af304e1ece6221
4,169,46,82,2,2,1,1280,2c46eda094feff3754af304e1ece6221
4,170,37,82,2,2,1,1394,2c46eda094feff3754af304e1ece6221
4,171,91,28,3,3,1,1672,2c46eda094feff3754af304e1ece6221
4,172,64,28,3,3,1,1655,2c46eda094feff3754af304e1ece6221
4,173,37,19,1,1,1,2444,2c46eda094feff3754af304e1ece6221
4,174,37,46,1,1,1,1342,2c46eda094feff3754af304e1ece6221
4,175,37,73,2,2,1,858,2c46eda094feff3754af304e1ece6221
4,176,10,55,2,2,1,1372,2c46eda094feff3754af304e1ece6221
4,177,91,37,3,3,1,1091,2c46eda094feff3754af304e1ece6221
4,178,19,64,2,1,0,1891,2c46eda094feff3754af304e1ece6221
4,179,64,37,3,3,1,963,2c46eda094feff3754af304e1ece6221
4,180,55,82,4,4,1,1120,2c46eda094feff3754af304e1ece6221
4,181,64,55,4,4,1,1152,2c46eda094feff3754af304e1ece6221
4,182,46,55,2,4,0,1297,2c46eda094feff3754af304e1ece6221
4,183,19,19,1,1,1,931,2c46eda094feff3754af304e1ece6221
4,184,19,55,2,2,1,1382,2c46eda094feff3754af304e1ece6221
4,185,46,19,1,3,0,993,2c46eda094feff3754af304e1ece6221
4,186,64,82,4,4,1,1151,2c46eda094feff3754af304e1ece6221
4,187,91,91,4,4,1,1228,2c46eda094feff3754af304e1ece6221
4,188,10,82,2,1,0,1027,2c46eda094feff3754af304e1ece6221
4,189,82,64,4,4,1,1249,2c46eda094feff3754af304e1ece6221
4,190,55,64,4,4,1,870,2c46eda094feff3754af304e1ece6221
4,191,10,46,1,1,1,1382,2c46eda094feff3754af304e1ece6221
4,192,46,64,2,2,1,895,2c46eda094feff3754af304e1ece6221
4,193,91,46,3,3,1,856,2c46eda094feff3754af304e1ece6221
4,194,19,73,2,2,1,1075,2c46eda094feff3754af304e1ece6221
4,195,10,19,1,1,1,896,2c46eda094feff3754af304e1ece6221
4,196,46,46,1,1,1,1236,2c46eda094feff3754af304e1ece6221
4,197,10,37,1,1,1,778,2c46eda094feff3754af304e1ece6221
4,198,73,10,3,3,1,1380,2c46eda094feff3754af304e1ece6221
4,199,55,28,3,3,1,836,2c46eda094feff3754af304e1ece6221
4,200,64,10,3,3,1,1129,2c46eda094feff3754af304e1ece6221
4,201,64,64,4,4,1,930,2c46eda094feff3754af304e1ece6221
4,202,46,55,2,4,0,1321,2c46eda094feff3754af304e1ece6221
4,203,55,55,4,4,1,1801,2c46eda094feff3754af304e1ece6221
4,204,10,91,2,1,0,973,2c46eda094feff3754af304e1ece6221
4,205,19,64,2,2,1,1068,2c46eda094feff3754af304e1ece6221
4,206,55,10,3,3,1,1413,2c46eda094feff3754af304e1ece6221
4,207,46,19,1,3,0,1390,2c46eda094feff3754af304e1ece6221
4,208,73,46,3,3,1,1110,2c46eda094feff3754af304e1ece6221
4,209,91,46,3,3,1,1567,2c46eda094feff3754af304e1ece6221
4,210,10,10,1,1,1,1129,2c46eda094feff3754af304e1ece6221
4,211,73,10,3,3,1,2029,2c46eda094feff3754af304e1ece6221
4,212,91,28,3,3,1,1146,2c46eda094feff3754af304e1ece6221
4,213,19,73,2,2,1,1675,2c46eda094feff3754af304e1ece6221
4,214,19,19,1,1,1,921,2c46eda094feff3754af304e1ece6221
4,215,37,10,1,1,1,1237,2c46eda094feff3754af304e1ece6221
4,216,10,28,1,1,1,869,2c46eda094feff3754af304e1ece6221
4,217,82,37,3,3,1,1758,2c46eda094feff3754af304e1ece6221
4,218,19,55,2,2,1,1315,2c46eda094feff3754af304e1ece6221
4,219,55,73,4,4,1,1371,2c46eda094feff3754af304e1ece6221
4,220,55,46,3,4,0,1319,2c46eda094feff3754af304e1ece6221
4,221,55,37,3,3,1,1168,2c46eda094feff3754af304e1ece6221
4,222,46,37,1,3,0,1421,2c46eda094feff3754af304e1ece6221
4,223,91,19,3,3,1,1455,2c46eda094feff3754af304e1ece6221
4,224,55,28,3,3,1,939,2c46eda094feff3754af304e1ece6221
4,225,10,37,1,1,1,1716,2c46eda094feff3754af304e1ece6221
4,226,28,37,1,1,1,937,2c46eda094feff3754af304e1ece6221
4,227,46,10,1,3,0,1360,2c46eda094feff3754af304e1ece6221
4,228,64,91,4,4,1,1022,2c46eda094feff3754af304e1ece6221
4,229,37,64,2,2,1,1384,2c46eda094feff3754af304e1ece6221
4,230,28,19,1,1,1,1117,2c46eda094feff3754af304e1ece6221
4,231,10,55,2,2,1,1269,2c46eda094feff3754af304e1ece6221
4,232,82,46,3,3,1,1922,2c46eda094feff3754af304e1ece6221
4,233,82,10,3,3,1,1284,2c46eda094feff3754af304e1ece6221
4,234,37,19,1,1,1,1212,2c46eda094feff3754af304e1ece6221
4,235,91,91,4,4,1,952,2c46eda094feff3754af304e1ece6221
4,236,19,28,1,1,1,1361,2c46eda094feff3754af304e1ece6221
4,237,73,19,3,3,1,808,2c46eda094feff3754af304e1ece6221
4,238,10,46,1,2,0,1147,2c46eda094feff3754af304e1ece6221
4,239,28,28,1,1,1,840,2c46eda094feff3754af304e1ece6221
4,240,73,55,4,4,1,1800,2c46eda094feff3754af304e1ece6221
4,241,55,19,3,3,1,1133,2c46eda094feff3754af304e1ece6221
4,242,46,91,2,4,0,864,2c46eda094feff3754af304e1ece6221
4,243,37,46,1,1,1,1405,2c46eda094feff3754af304e1ece6221
4,244,91,64,4,4,1,1013,2c46eda094feff3754af304e1ece6221
4,245,19,46,1,1,1,1905,2c46eda094feff3754af304e1ece6221
4,246,46,82,2,2,1,1590,2c46eda094feff3754af304e1ece6221
4,247,10,19,1,1,1,818,2c46eda094feff3754af304e1ece6221
4,248,64,28,3,3,1,1369,2c46eda094feff3754af304e1ece6221
4,249,82,55,4,4,1,2165,2c46eda094feff3754af304e1ece6221
4,250,28,55,2,2,1,1314,2c46eda094feff3754af304e1ece6221
4,251,46,73,2,2,1,1610,2c46eda094feff3754af304e1ece6221
4,252,91,37,3,3,1,839,2c46eda094feff3754af304e1ece6221
4,253,28,82,2,2,1,886,2c46eda094feff3754af304e1ece6221
4,254,19,10,1,1,1,778,2c46eda094feff3754af304e1ece6221
4,255,82,73,4,4,1,990,2c46eda094feff3754af304e1ece6221
4,256,55,82,4,2,0,1534,2c46eda094feff3754af304e1ece6221
4,257,91,73,4,4,1,853,2c46eda094feff3754af304e1ece6221
4,258,46,46,1,2,0,1833,2c46eda094feff3754af304e1ece6221
4,259,73,91,4,4,1,1697,2c46eda094feff3754af304e1ece6221
4,260,10,64,2,2,1,1075,2c46eda094feff3754af304e1ece6221
4,261,64,46,3,3,1,1810,2c46eda094feff3754af304e1ece6221
4,262,55,64,4,2,0,1781,2c46eda094feff3754af304e1ece6221
4,263,91,55,4,3,0,1005,2c46eda094feff3754af304e1ece6221
4,264,10,73,2,2,1,972,2c46eda094feff3754af304e1ece6221
4,265,19,91,2,2,1,1001,2c46eda094feff3754af304e1ece6221
4,266,82,19,3,3,1,1532,2c46eda094feff3754af304e1ece6221
4,267,82,82,4,4,1,1273,2c46eda094feff3754af304e1ece6221
4,268,28,46,1,2,0,1572,2c46eda094feff3754af304e1ece6221
4,269,82,64,4,3,0,1616,2c46eda094feff3754af304e1ece6221
4,270,37,55,2,2,1,1818,2c46eda094feff3754af304e1ece6221
4,271,82,28,3,3,1,1135,2c46eda094feff3754af304e1ece6221
4,272,19,37,1,1,1,1453,2c46eda094feff3754af304e1ece6221
4,273,28,10,1,1,1,1015,2c46eda094feff3754af304e1ece6221
4,274,28,73,2,2,1,1324,2c46eda094feff3754af304e1ece6221
4,275,28,91,2,2,1,1243,2c46eda094feff3754af304e1ece6221
4,276,64,19,3,3,1,1026,2c46eda094feff3754af304e1ece6221
4,277,64,82,4,4,1,1755,2c46eda094feff3754af304e1ece6221
4,278,73,28,3,3,1,1953,2c46eda094feff3754af304e1ece6221
4,279,10,82,2,2,1,1216,2c46eda094feff3754af304e1ece6221
4,280,37,37,1,3,0,1412,2c46eda094feff3754af304e1ece6221
4,281,73,82,4,4,1,1067,2c46eda094feff3754af304e1ece6221
4,282,46,64,2,4,0,1532,2c46eda094feff3754af304e1ece6221
4,283,64,55,4,4,1,1336,2c46eda094feff3754af304e1ece6221
4,284,73,37,3,3,1,964,2c46eda094feff3754af304e1ece6221
4,285,37,91,2,2,1,2374,2c46eda094feff3754af304e1ece6221
4,286,37,28,1,1,1,839,2c46eda094feff3754af304e1ece6221
4,287,37,73,2,2,1,1098,2c46eda094feff3754af304e1ece6221
4,288,28,64,2,2,1,928,2c46eda094feff3754af304e1ece6221
4,289,73,73,4,4,1,1290,2c46eda094feff3754af304e1ece6221
4,290,19,82,2,2,1,1346,2c46eda094feff3754af304e1ece6221
4,291,46,28,1,1,1,1358,2c46eda094feff3754af304e1ece6221
4,292,73,64,4,3,0,2004,2c46eda094feff3754af304e1ece6221
4,293,91,10,3,3,1,1203,2c46eda094feff3754af304e1ece6221
4,294,55,91,4,4,1,1455,2c46eda094feff3754af304e1ece6221
4,295,91,82,4,4,1,856,2c46eda094feff3754af304e1ece6221
4,296,37,82,2,2,1,1659,2c46eda094feff3754af304e1ece6221
4,297,64,73,4,4,1,1214,2c46eda094feff3754af304e1ece6221
4,298,64,37,3,3,1,1307,2c46eda094feff3754af304e1ece6221
4,299,82,91,4,4,1,1389,2c46eda094feff3754af304e1ece6221
4,300,28,46,1,1,1,1747,2c46eda094feff3754af304e1ece6221
4,301,10,55,2,2,1,1451,2c46eda094feff3754af304e1ece6221
4,302,64,46,3,3,1,1153,2c46eda094feff3754af304e1ece6221
4,303,64,19,3,3,1,1578,2c46eda094feff3754af304e1ece6221
4,304,46,91,2,2,1,2194,2c46eda094feff3754af304e1ece6221
4,305,82,91,4,4,1,2522,2c46eda094feff3754af304e1ece6221
4,306,37,28,1,1,1,1360,2c46eda094feff3754af304e1ece6221
4,307,37,73,2,2,1,877,2c46eda094feff3754af304e1ece6221
4,308,46,28,1,1,1,2132,2c46eda094feff3754af304e1ece6221
4,309,73,46,3,3,1,1710,2c46eda094feff3754af304e1ece6221
4,310,91,37,3,3,1,1151,2c46eda094feff3754af304e1ece6221
4,311,55,55,4,2,0,2300,2c46eda094feff3754af304e1ece6221
4,312,19,82,2,2,1,1175,2c46eda094feff3754af304e1ece6221
4,313,55,10,3,3,1,1450,2c46eda094feff3754af304e1ece6221
4,314,10,91,2,2,1,1265,2c46eda094feff3754af304e1ece6221
4,315,73,82,4,4,1,1280,2c46eda094feff3754af304e1ece6221
4,316,37,55,2,2,1,1949,2c46eda094feff3754af304e1ece6221
4,317,91,10,3,3,1,950,2c46eda094feff3754af304e1ece6221
4,318,46,82,2,2,1,1205,2c46eda094feff3754af304e1ece6221
4,319,64,64,4,4,1,1154,2c46eda094feff3754af304e1ece6221
4,320,19,55,2,2,1,924,2c46eda094feff3754af304e1ece6221
4,321,73,10,3,3,1,1279,2c46eda094feff3754af304e1ece6221
4,322,73,64,4,4,1,1034,2c46eda094feff3754af304e1ece6221
4,323,82,64,4,4,1,989,2c46eda094feff3754af304e1ece6221
4,324,10,64,2,1,0,1074,2c46eda094feff3754af304e1ece6221
4,325,10,37,1,1,1,1015,2c46eda094feff3754af304e1ece6221
4,326,91,19,3,3,1,815,2c46eda094feff3754af304e1ece6221
4,327,82,19,3,3,1,970,2c46eda094feff3754af304e1ece6221
4,328,91,73,4,4,1,892,2c46eda094feff3754af304e1ece6221
4,329,82,55,4,4,1,782,2c46eda094feff3754af304e1ece6221
4,330,55,19,3,3,1,1081,2c46eda094feff3754af304e1ece6221
4,331,73,73,4,4,1,1075,2c46eda094feff3754af304e1ece6221
4,332,82,28,3,3,1,814,2c46eda094feff3754af304e1ece6221
4,333,64,91,4,4,1,1105,2c46eda094feff3754af304e1ece6221
4,334,10,19,1,1,1,1039,2c46eda094feff3754af304e1ece6221
4,335,55,37,3,3,1,2878,2c46eda094feff3754af304e1ece6221
4,336,37,91,2,2,1,2003,2c46eda094feff3754af304e1ece6221
4,337,73,19,3,3,1,845,2c46eda094feff3754af304e1ece6221
4,338,19,73,2,1,0,1944,2c46eda094feff3754af304e1ece6221
4,339,28,91,2,2,1,1013,2c46eda094feff3754af304e1ece6221
4,340,46,55,2,4,0,1722,2c46eda094feff3754af304e1ece6221
4,341,37,19,1,1,1,1526,2c46eda094feff3754af304e1ece6221
4,342,91,64,4,4,1,1117,2c46eda094feff3754af304e1ece6221
4,343,28,73,2,2,1,1584,2c46eda094feff3754af304e1ece6221
4,344,19,91,2,2,1,1086,2c46eda094feff3754af304e1ece6221
4,345,55,82,4,4,1,1219,2c46eda094feff3754af304e1ece6221
4,346,55,64,4,4,1,1279,2c46eda094feff3754af304e1ece6221
4,347,64,73,4,4,1,843,2c46eda094feff3754af304e1ece6221
4,348,64,82,4,4,1,783,2c46eda094feff3754af304e1ece6221
4,349,37,46,1,2,0,1794,2c46eda094feff3754af304e1ece6221
4,350,28,64,2,2,1,967,2c46eda094feff3754af304e1ece6221
4,351,19,64,2,2,1,1050,2c46eda094feff3754af304e1ece6221
4,352,64,37,3,3,1,923,2c46eda094feff3754af304e1ece6221
4,353,82,37,3,3,1,1141,2c46eda094feff3754af304e1ece6221
4,354,73,91,4,4,1,1003,2c46eda094feff3754af304e1ece6221
4,355,91,28,3,3,1,2702,2c46eda094feff3754af304e1ece6221
4,356,64,10,3,3,1,795,2c46eda094feff3754af304e1ece6221
4,357,28,82,2,2,1,1390,2c46eda094feff3754af304e1ece6221
4,358,46,10,1,3,0,2231,2c46eda094feff3754af304e1ece6221
4,359,46,73,2,2,1,826,2c46eda094feff3754af304e1ece6221
4,360,28,10,1,1,1,1423,2c46eda094feff3754af304e1ece6221
4,361,10,82,2,2,1,1067,2c46eda094feff3754af304e1ece6221
4,362,55,28,3,3,1,1048,2c46eda094feff3754af304e1ece6221
4,363,82,73,4,4,1,1134,2c46eda094feff3754af304e1ece6221
4,364,19,37,1,1,1,1769,2c46eda094feff3754af304e1ece6221
4,365,55,91,4,4,1,2062,2c46eda094feff3754af304e1ece6221
4,366,46,37,1,1,1,1829,2c46eda094feff3754af304e1ece6221
4,367,46,46,1,1,1,1736,2c46eda094feff3754af304e1ece6221
4,368,10,46,1,1,1,1688,2c46eda094feff3754af304e1ece6221
4,369,10,73,2,2,1,1272,2c46eda094feff3754af304e1ece6221
4,370,73,37,3,3,1,1091,2c46eda094feff3754af304e1ece6221
4,371,10,10,1,1,1,1195,2c46eda094feff3754af304e1ece6221
4,372,82,82,4,4,1,1018,2c46eda094feff3754af304e1ece6221
4,373,91,91,4,4,1,834,2c46eda094feff3754af304e1ece6221
4,374,82,10,3,3,1,1035,2c46eda094feff3754af304e1ece6221
4,375,19,19,1,1,1,1202,2c46eda094feff3754af304e1ece6221
4,376,91,46,3,3,1,965,2c46eda094feff3754af304e1ece6221
4,377,46,64,2,2,1,1790,2c46eda094feff3754af304e1ece6221
4,378,10,28,1,1,1,1141,2c46eda094feff3754af304e1ece6221
4,379,19,10,1,1,1,773,2c46eda094feff3754af304e1ece6221
4,380,64,28,3,3,1,1383,2c46eda094feff3754af304e1ece6221
4,381,73,28,3,3,1,1077,2c46eda094feff3754af304e1ece6221
4,382,37,82,2,2,1,1589,2c46eda094feff3754af304e1ece6221
4,383,91,82,4,4,1,1090,2c46eda094feff3754af304e1ece6221
4,384,19,28,1,1,1,1473,2c46eda094feff3754af304e1ece6221
4,385,73,55,4,4,1,1211,2c46eda094feff3754af304e1ece6221
4,386,28,28,1,1,1,2019,2c46eda094feff3754af304e1ece6221
4,387,46,19,1,3,0,1157,2c46eda094feff3754af304e1ece6221
4,388,19,46,1,1,1,999,2c46eda094feff3754af304e1ece6221
4,389,28,55,2,2,1,1060,2c46eda094feff3754af304e1ece6221
4,390,55,73,4,4,1,1369,2c46eda094feff3754af304e1ece6221
4,391,82,46,3,3,1,976,2c46eda094feff3754af304e1ece6221
4,392,37,37,1,1,1,1303,2c46eda094feff3754af304e1ece6221
4,393,28,19,1,1,1,1049,2c46eda094feff3754af304e1ece6221
4,394,91,55,4,4,1,1172,2c46eda094feff3754af304e1ece6221
4,395,37,64,2,1,0,1543,2c46eda094feff3754af304e1ece6221
4,396,64,55,4,4,1,1055,2c46eda094feff3754af304e1ece6221
4,397,28,37,1,1,1,1309,2c46eda094feff3754af304e1ece6221
4,398,37,10,1,1,1,1164,2c46eda094feff3754af304e1ece6221
4,399,55,46,3,3,1,1093,2c46eda094feff3754af304e1ece6221
4,0,37,10,1,1,1,824,e90f9e327d4688850c305939f36b5f32
4,1,64,46,3,2,0,877,e90f9e327d4688850c305939f36b5f32
4,2,82,91,4,4,1,803,e90f9e327d4688850c305939f36b5f32
4,3,10,82,2,3,0,1062,e90f9e327d4688850c305939f36b5f32
4,4,91,64,4,3,0,1553,e90f9e327d4688850c305939f36b5f32
4,5,55,46,3,4,0,793,e90f9e327d4688850c305939f36b5f32
4,6,37,73,2,4,0,894,e90f9e327d4688850c305939f36b5f32
4,7,37,28,1,1,1,759,e90f9e327d4688850c305939f36b5f32
4,8,55,28,3,1,0,824,e90f9e327d4688850c305939f36b5f32
4,9,82,64,4,3,0,1410,e90f9e327d4688850c305939f36b5f32
4,10,64,37,3,3,1,1141,e90f9e327d4688850c305939f36b5f32
4,11,10,28,1,2,0,904,e90f9e327d4688850c305939f36b5f32
4,12,10,73,2,1,0,797,e90f9e327d4688850c305939f36b5f32
4,13,55,91,4,4,1,1129,e90f9e327d4688850c305939f36b5f32
4,14,10,55,2,2,1,1249,e90f9e327d4688850c305939f36b5f32
4,15,64,28,3,3,1,1297,e90f9e327d4688850c305939f36b5f32
4,16,64,55,4,4,1,1455,e90f9e327d4688850c305939f36b5f32
4,17,19,28,1,1,1,1205,e90f9e327d4688850c305939f36b5f32
4,18,46,10,1,1,1,1191,e90f9e327d4688850c305939f36b5f32
4,19,19,73,2,2,1,893,e90f9e327d4688850c305939f36b5f32
4,20,37,37,1,1,1,1130,e90f9e327d4688850c305939f36b5f32
4,21,73,73,4,2,0,1003,e90f9e327d4688850c305939f36b5f32
4,22,28,82,2,2,1,1146,e90f9e327d4688850c305939f36b5f32
4,23,37,91,2,2,1,822,e90f9e327d4688850c305939f36b5f32
4,24,55,37,3,1,0,883,e90f9e327d4688850c305939f36b5f32
4,25,19,19,1,1,1,756,e90f9e327d4688850c305939f36b5f32
4,26,55,10,3,1,0,922,e90f9e327d4688850c305939f36b5f32
4,27,46,64,2,4,0,976,e90f9e327d4688850c305939f36b5f32
4,28,91,82,4,4,1,1034,e90f9e327d4688850c305939f36b5f32
4,29,10,37,1,1,1,993,e90f9e327d4688850c305939f36b5f32
4,30,46,19,1,1,1,1052,e90f9e327d4688850c305939f36b5f32
4,31,73,37,3,3,1,1301,e90f9e327d4688850c305939f36b5f32
4,32,28,10,1,1,1,704,e90f9e327d4688850c305939f36b5f32
4,33,28,46,1,2,0,1101,e90f9e327d4688850c305939f36b5f32
4,34,91,19,3,3,1,1272,e90f9e327d4688850c305939f36b5f32
4,35,46,73,2,4,0,963,e90f9e327d4688850c305939f36b5f32
4,36,28,19,1,1,1,855,e90f9e327d4688850c305939f36b5f32
4,37,82,10,3,3,1,1100,e90f9e327d4688850c305939f36b5f32
4,38,10,19,1,1,1,719,e90f9e327d4688850c305939f36b5f32
4,39,28,55,2,2,1,948,e90f9e327d4688850c305939f36b5f32
4,40,82,28,3,3,1,1096,e90f9e327d4688850c305939f36b5f32
4,41,55,64,4,4,1,1079,e90f9e327d4688850c305939f36b5f32
4,42,28,37,1,2,0,1115,e90f9e327d4688850c305939f36b5f32
4,43,46,55,2,3,0,1090,e90f9e327d4688850c305939f36b5f32
4,44,19,10,1,1,1,802,e90f9e327d4688850c305939f36b5f32
4,45,73,55,4,3,0,1370,e90f9e327d4688850c305939f36b5f32
4,46,46,28,1,3,0,1222,e90f9e327d4688850c305939f36b5f32
4,47,28,28,1,1,1,772,e90f9e327d4688850c305939f36b5f32
4,48,19,37,1,1,1,1006,e90f9e327d4688850c305939f36b5f32
4,49,91,28,3,3,1,976,e90f9e327d4688850c305939f36b5f32
4,50,28,64,2,2,1,1202,e90f9e327d4688850c305939f36b5f32
4,51,91,55,4,4,1,1161,e90f9e327d4688850c305939f36b5f32
4,52,82,73,4,4,1,987,e90f9e327d4688850c305939f36b5f32
4,53,37,82,2,2,1,1341,e90f9e327d4688850c305939f36b5f32
4,54,46,37,1,3,0,1231,e90f9e327d4688850c305939f36b5f32
4,55,28,91,2,2,1,978,e90f9e327d4688850c305939f36b5f32
4,56,19,46,1,3,0,1105,e90f9e327d4688850c305939f36b5f32
4,57,73,19,3,3,1,1335,e90f9e327d4688850c305939f36b5f32
4,58,10,10,1,1,1,940,e90f9e327d4688850c305939f36b5f32
4,59,46,46,1,3,0,1046,e90f9e327d4688850c305939f36b5f32
4,60,64,73,4,4,1,1294,e90f9e327d4688850c305939f36b5f32
4,61,28,73,2,4,0,1066,e90f9e327d4688850c305939f36b5f32
4,62,37,19,1,1,1,1133,e90f9e327d4688850c305939f36b5f32
4,63,73,46,3,3,1,1146,e90f9e327d4688850c305939f36b5f32
4,64,37,64,2,1,0,1959,e90f9e327d4688850c305939f36b5f32
4,65,73,28,3,3,1,1119,e90f9e327d4688850c305939f36b5f32
4,66,37,55,2,2,1,1521,e90f9e327d4688850c305939f36b5f32
4,67,64,82,4,4,1,1278,e90f9e327d4688850c305939f36b5f32
4,68,46,91,2,4,0,1023,e90f9e327d4688850c305939f36b5f32
4,69,91,10,3,3,1,1223,e90f9e327d4688850c305939f36b5f32
4,70,37,46,1,2,0,1423,e90f9e327d4688850c305939f36b5f32
4,71,46,82,2,2,1,1417,e90f9e327d4688850c305939f36b5f32
4,72,19,64,2,2,1,1174,e90f9e327d4688850c305939f36b5f32
4,73,10,46,1,1,1,1133,e90f9e327d4688850c305939f36b5f32
4,74,10,64,2,2,1,1176,e90f9e327d4688850c305939f36b5f32
4,75,10,91,2,2,1,1034,e90f9e327d4688850c305939f36b5f32
4,76,64,19,3,3,1,1034,e90f9e327d4688850c305939f36b5f32
4,77,82,82,4,4,1,1020,e90f9e327d4688850c305939f36b5f32
4,78,64,91,4,4,1,833,e90f9e327d4688850c305939f36b5f32
4,79,64,64,4,3,0,1376,e90f9e327d4688850c305939f36b5f32
4,80,82,37,3,3,1,915,e90f9e327d4688850c305939f36b5f32
4,81,55,19,3,3,1,812,e90f9e327d4688850c305939f36b5f32
4,82,19,55,2,2,1,1014,e90f9e327d4688850c305939f36b5f32
4,83,91,37,3,3,1,1118,e90f9e327d4688850c305939f36b5f32
4,84,91,46,3,3,1,851,e90f9e327d4688850c305939f36b5f32
4,85,91,91,4,4,1,799,e90f9e327d4688850c305939f36b5f32
4,86,73,91,4,4,1,795,e90f9e327d4688850c305939f36b5f32
4,87,55,73,4,4,1,1015,e90f9e327d4688850c305939f36b5f32
4,88,73,64,4,4,1,1037,e90f9e327d4688850c305939f36b5f32
4,89,19,91,2,2,1,1152,e90f9e327d4688850c305939f36b5f32
4,90,55,55,4,3,0,1234,e90f9e327d4688850c305939f36b5f32
4,91,82,46,3,3,1,1125,e90f9e327d4688850c305939f36b5f32
4,92,19,82,2,2,1,1211,e90f9e327d4688850c305939f36b5f32
4,93,55,82,4,2,0,912,e90f9e327d4688850c305939f36b5f32
4,94,82,55,4,3,0,1067,e90f9e327d4688850c305939f36b5f32
4,95,64,10,3,3,1,1082,e90f9e327d4688850c305939f36b5f32
4,96,91,73,4,4,1,948,e90f9e327d4688850c305939f36b5f32
4,97,73,10,3,3,1,871,e90f9e327d4688850c305939f36b5f32
4,98,73,82,4,4,1,948,e90f9e327d4688850c305939f36b5f32
4,99,82,19,3,3,1,788,e90f9e327d4688850c305939f36b5f32
4,100,37,91,2,2,1,1241,e90f9e327d4688850c305939f36b5f32
4,101,37,28,1,1,1,1144,e90f9e327d4688850c305939f36b5f32
4,102,46,82,2,2,1,787,e90f9e327d4688850c305939f36b5f32
4,103,82,73,4,3,0,1066,e90f9e327d4688850c305939f36b5f32
4,104,73,19,3,3,1,904,e90f9e327d4688850c305939f36b5f32
4,105,55,55,4,2,0,1389,e90f9e327d4688850c305939f36b5f32
4,106,37,37,1,2,0,1512,e90f9e327d4688850c305939f36b5f32
4,107,28,55,2,2,1,1234,e90f9e327d4688850c305939f36b5f32
4,108,91,82,4,4,1,1348,e90f9e327d4688850c305939f36b5f32
4,109,73,28,3,3,1,869,e90f9e327d4688850c305939f36b5f32
4,110,37,64,2,2,1,1310,e90f9e327d4688850c305939f36b5f32
4,111,55,64,4,3,0,1224,e90f9e327d4688850c305939f36b5f32
4,112,46,64,2,4,0,1016,e90f9e327d4688850c305939f36b5f32
4,113,28,28,1,1,1,1661,e90f9e327d4688850c305939f36b5f32
4,114,73,73,4,4,1,1507,e90f9e327d4688850c305939f36b5f32
4,115,55,28,3,3,1,877,e90f9e327d4688850c305939f36b5f32
4,116,28,46,1,2,0,1259,e90f9e327d4688850c305939f36b5f32
4,117,37,19,1,1,1,930,e90f9e327d4688850c305939f36b5f32
4,118,46,28,1,1,1,1312,e90f9e327d4688850c305939f36b5f32
4,119,73,37,3,3,1,1184,e90f9e327d4688850c305939f36b5f32
4,120,19,37,1,1,1,848,e90f9e327d4688850c305939f36b5f32
4,121,82,10,3,3,1,1365,e90f9e327d4688850c305939f36b5f32
4,122,28,64,2,2,1,1329,e90f9e327d4688850c305939f36b5f32
4,123,82,37,3,3,1,1343,e90f9e327d4688850c305939f36b5f32
4,124,82,91,4,4,1,849,e90f9e327d4688850c305939f36b5f32
4,125,64,37,3,3,1,991,e90f9e327d4688850c305939f36b5f32
4,126,37,46,1,1,1,1283,e90f9e327d4688850c305939f36b5f32
4,127,82,46,3,3,1,1049,e90f9e327d4688850c305939f36b5f32
4,128,46,55,2,1,0,1426,e90f9e327d4688850c305939f36b5f32
4,129,19,46,1,1,1,1139,e90f9e327d4688850c305939f36b5f32
4,130,10,46,1,1,1,1105,e90f9e327d4688850c305939f36b5f32
4,131,91,73,4,4,1,1187,e90f9e327d4688850c305939f36b5f32
4,132,73,64,4,4,1,1062,e90f9e327d4688850c305939f36b5f32
4,133,55,19,3,1,0,973,e90f9e327d4688850c305939f36b5f32
4,134,82,64,4,4,1,1186,e90f9e327d4688850c305939f36b5f32
4,135,64,28,3,2,0,1773,e90f9e327d4688850c305939f36b5f32
4,136,82,28,3,3,1,975,e90f9e327d4688850c305939f36b5f32
4,137,10,55,2,2,1,1282,e90f9e327d4688850c305939f36b5f32
4,138,37,73,2,2,1,913,e90f9e327d4688850c305939f36b5f32
4,139,91,10,3,3,1,1149,e90f9e327d4688850c305939f36b5f32
4,140,46,91,2,4,0,1101,e90f9e327d4688850c305939f36b5f32
4,141,82,19,3,3,1,1137,e90f9e327d4688850c305939f36b5f32
4,142,73,46,3,3,1,1137,e90f9e327d4688850c305939f36b5f32
4,143,64,91,4,4,1,1653,e90f9e327d4688850c305939f36b5f32
4,144,82,55,4,4,1,1268,e90f9e327d4688850c305939f36b5f32
4,145,10,91,2,2,1,967,e90f9e327d4688850c305939f36b5f32
4,146,73,10,3,3,1,1095,e90f9e327d4688850c305939f36b5f32
4,147,46,19,1,1,1,1615,e90f9e327d4688850c305939f36b5f32
4,148,91,46,3,3,1,1097,e90f9e327d4688850c305939f36b5f32
4,149,64,82,4,4,1,1257,e90f9e327d4688850c305939f36b5f32
4,150,37,55,2,2,1,1429,e90f9e327d4688850c305939f36b5f32
4,151,91,55,4,4,1,1396,e90f9e327d4688850c305939f36b5f32
4,152,64,10,3,3,1,1056,e90f9e327d4688850c305939f36b5f32
4,153,46,10,1,1,1,1311,e90f9e327d4688850c305939f36b5f32
4,154,46,46,1,2,0,1135,e90f9e327d4688850c305939f36b5f32
4,155,10,10,1,1,1,929,e90f9e327d4688850c305939f36b5f32
4,156,10,64,2,2,1,997,e90f9e327d4688850c305939f36b5f32
4,157,46,37,1,1,1,1192,e90f9e327d4688850c305939f36b5f32
4,158,10,28,1,1,1,913,e90f9e327d4688850c305939f36b5f32
4,159,55,46,3,1,0,1586,e90f9e327d4688850c305939f36b5f32
4,160,64,19,3,3,1,1068,e90f9e327d4688850c305939f36b5f32
4,161,91,28,3,3,1,1004,e90f9e327d4688850c305939f36b5f32
4,162,10,73,2,2,1,1134,e90f9e327d4688850c305939f36b5f32
4,163,91,91,4,4,1,1099,e90f9e327d4688850c305939f36b5f32
4,164,73,82,4,4,1,853,e90f9e327d4688850c305939f36b5f32
4,165,55,10,3,1,0,1582,e90f9e327d4688850c305939f36b5f32
4,166,55,73,4,4,1,992,e90f9e327d4688850c305939f36b5f32
4,167,10,37,1,1,1,1226,e90f9e327d4688850c305939f36b5f32
4,168,91,37,3,3,1,1224,e90f9e327d4688850c305939f36b5f32
4,169,37,82,2,2,1,1430,e90f9e327d4688850c305939f36b5f32
4,170,64,64,4,4,1,1347,e90f9e327d4688850c305939f36b5f32
4,171,28,10,1,1,1,933,e90f9e327d4688850c305939f36b5f32
4,172,37,10,1,1,1,916,e90f9e327d4688850c305939f36b5f32
4,173,82,82,4,4,1,1267,e90f9e327d4688850c305939f36b5f32
4,174,19,28,1,1,1,1143,e90f9e327d4688850c305939f36b5f32
4,175,46,73,2,4,0,1618,e90f9e327d4688850c305939f36b5f32
4,176,19,73,2,2,1,926,e90f9e327d4688850c305939f36b5f32
4,177,19,82,2,2,1,953,e90f9e327d4688850c305939f36b5f32
4,178,64,55,4,3,0,1122,e90f9e327d4688850c305939f36b5f32
4,179,73,55,4,3,0,1484,e90f9e327d4688850c305939f36b5f32
4,180,64,46,3,3,1,1100,e90f9e327d4688850c305939f36b5f32
4,181,28,37,1,1,1,1598,e90f9e327d4688850c305939f36b5f32
4,182,55,37,3,1,0,940,e90f9e327d4688850c305939f36b5f32
4,183,19,91,2,2,1,975,e90f9e327d4688850c305939f36b5f32
4,184,19,55,2,2,1,1395,e90f9e327d4688850c305939f36b5f32
4,185,28,19,1,1,1,924,e90f9e327d4688850c305939f36b5f32
4,186,55,91,4,4,1,1168,e90f9e327d4688850c305939f36b5f32
4,187,73,91,4,4,1,853,e90f9e327d4688850c305939f36b5f32
4,188,91,19,3,3,1,884,e90f9e327d4688850c305939f36b5f32
4,189,28,91,2,2,1,1213,e90f9e327d4688850c305939f36b5f32
4,190,28,73,2,2,1,865,e90f9e327d4688850c305939f36b5f32
4,191,28,82,2,2,1,793,e90f9e327d4688850c305939f36b5f32
4,192,19,19,1,1,1,912,e90f9e327d4688850c305939f36b5f32
4,193,55,82,4,2,0,925,e90f9e327d4688850c305939f36b5f32
4,194,10,82,2,2,1,859,e90f9e327d4688850c305939f36b5f32
4,195,10,19,1,1,1,854,e90f9e327d4688850c305939f36b5f32
4,196,64,73,4,3,0,1198,e90f9e327d4688850c305939f36b5f32
4,197,91,64,4,4,1,846,e90f9e327d4688850c305939f36b5f32
4,198,19,10,1,1,1,1196,e90f9e327d4688850c305939f36b5f32
4,199,19,64,2,2,1,1222,e90f9e327d4688850c305939f36b5f32
4,200,82,64,4,4,1,1261,e90f9e327d4688850c305939f36b5f32
4,201,64,46,3,3,1,925,e90f9e327d4688850c305939f36b5f32
4,202,19,64,2,2,1,1169,e90f9e327d4688850c305939f36b5f32
4,203,28,19,1,1,1,714,e90f9e327d4688850c305939f36b5f32
4,204,64,28,3,3,1,1313,e90f9e327d4688850c305939f36b5f32
4,205,64,73,4,4,1,989,e90f9e327d4688850c305939f36b5f32
4,206,37,28,1,3,0,1231,e90f9e327d4688850c305939f36b5f32
4,207,46,91,2,2,1,1296,e90f9e327d4688850c305939f36b5f32
4,208,10,64,2,2,1,1038,e90f9e327d4688850c305939f36b5f32
4,209,28,55,2,2,1,1136,e90f9e327d4688850c305939f36b5f32
4,210,10,55,2,2,1,1175,e90f9e327d4688850c305939f36b5f32
4,211,91,19,3,3,1,1134,e90f9e327d4688850c305939f36b5f32
4,212,19,19,1,1,1,904,e90f9e327d4688850c305939f36b5f32
4,213,28,46,1,1,1,1056,e90f9e327d4688850c305939f36b5f32
4,214,91,28,3,3,1,1079,e90f9e327d4688850c305939f36b5f32
4,215,46,28,1,3,0,1196,e90f9e327d4688850c305939f36b5f32
4,216,73,46,3,3,1,920,e90f9e327d4688850c305939f36b5f32
4,217,64,64,4,4,1,1154,e90f9e327d4688850c305939f36b5f32
4,218,91,10,3,3,1,969,e90f9e327d4688850c305939f36b5f32
4,219,64,82,4,4,1,1092,e90f9e327d4688850c305939f36b5f32
4,220,19,37,1,2,0,1114,e90f9e327d4688850c305939f36b5f32
4,221,82,37,3,3,1,965,e90f9e327d4688850c305939f36b5f32
4,222,10,91,2,2,1,1190,e90f9e327d4688850c305939f36b5f32
4,223,55,73,4,2,0,1144,e90f9e327d4688850c305939f36b5f32
4,224,91,73,4,4,1,1051,e90f9e327d4688850c305939f36b5f32
4,225,73,82,4,4,1,881,e90f9e327d4688850c305939f36b5f32
4,226,46,46,1,2,0,1264,e90f9e327d4688850c305939f36b5f32
4,227,10,73,2,2,1,992,e90f9e327d4688850c305939f36b5f32
4,228,46,55,2,2,1,1163,e90f9e327d4688850c305939f36b5f32
4,229,19,55,2,2,1,883,e90f9e327d4688850c305939f36b5f32
4,230,55,91,4,4,1,1390,e90f9e327d4688850c305939f36b5f32
4,231,10,28,1,1,1,904,e90f9e327d4688850c305939f36b5f32
4,232,91,82,4,4,1,1283,e90f9e327d4688850c305939f36b5f32
4,233,82,82,4,4,1,896,e90f9e327d4688850c305939f36b5f32
4,234,19,46,1,2,0,1063,e90f9e327d4688850c305939f36b5f32
4,235,46,82,2,2,1,1257,e90f9e327d4688850c305939f36b5f32
4,236,91,55,4,3,0,967,e90f9e327d4688850c305939f36b5f32
4,237,28,82,2,2,1,1054,e90f9e327d4688850c305939f36b5f32
4,238,37,37,1,1,1,997,e90f9e327d4688850c305939f36b5f32
4,239,46,64,2,2,1,902,e90f9e327d4688850c305939f36b5f32
4,240,82,28,3,3,1,934,e90f9e327d4688850c305939f36b5f32
4,241,19,91,2,2,1,1052,e90f9e327d4688850c305939f36b5f32
4,242,82,10,3,3,1,969,e90f9e327d4688850c305939f36b5f32
4,243,73,91,4,4,1,842,e90f9e327d4688850c305939f36b5f32
4,244,28,91,2,2,1,1006,e90f9e327d4688850c305939f36b5f32
4,245,19,73,2,2,1,984,e90f9e327d4688850c305939f36b5f32
4,246,91,64,4,3,0,968,e90f9e327d4688850c305939f36b5f32
4,247,73,73,4,4,1,970,e90f9e327d4688850c305939f36b5f32
4,248,46,37,1,2,0,1237,e90f9e327d4688850c305939f36b5f32
4,249,55,55,4,2,0,1716,e90f9e327d4688850c305939f36b5f32
4,250,82,46,3,3,1,982,e90f9e327d4688850c305939f36b5f32
4,251,64,91,4,4,1,904,e90f9e327d4688850c305939f36b5f32
4,252,64,55,4,4,1,1274,e90f9e327d4688850c305939f36b5f32
4,253,55,82,4,4,1,1085,e90f9e327d4688850c305939f36b5f32
4,254,73,55,4,3,0,1060,e90f9e327d4688850c305939f36b5f32
4,255,19,10,1,1,1,995,e90f9e327d4688850c305939f36b5f32
4,256,28,10,1,1,1,794,e90f9e327d4688850c305939f36b5f32
4,257,37,55,2,2,1,1186,e90f9e327d4688850c305939f36b5f32
4,258,55,10,3,1,0,1195,e90f9e327d4688850c305939f36b5f32
4,259,55,28,3,3,1,1485,e90f9e327d4688850c305939f36b5f32
4,260,46,19,1,3,0,932,e90f9e327d4688850c305939f36b5f32
4,261,37,73,2,2,1,1035,e90f9e327d4688850c305939f36b5f32
4,262,28,37,1,1,1,1040,e90f9e327d4688850c305939f36b5f32
4,263,91,37,3,3,1,1059,e90f9e327d4688850c305939f36b5f32
4,264,46,10,1,1,1,1002,e90f9e327d4688850c305939f36b5f32
4,265,73,19,3,3,1,933,e90f9e327d4688850c305939f36b5f32
4,266,82,55,4,4,1,1181,e90f9e327d4688850c305939f36b5f32
4,267,37,91,2,2,1,1240,e90f9e327d4688850c305939f36b5f32
4,268,64,37,3,3,1,1303,e90f9e327d4688850c305939f36b5f32
4,269,19,82,2,2,1,1135,e90f9e327d4688850c305939f36b5f32
4,270,55,46,3,3,1,1556,e90f9e327d4688850c305939f36b5f32
4,271,10,10,1,1,1,975,e90f9e327d4688850c305939f36b5f32
4,272,10,37,1,1,1,1282,e90f9e327d4688850c305939f36b5f32
4,273,82,91,4,4,1,959,e90f9e327d4688850c305939f36b5f32
4,274,64,19,3,3,1,1142,e90f9e327d4688850c305939f36b5f32
4,275,10,82,2,2,1,872,e90f9e327d4688850c305939f36b5f32
4,276,55,19,3,3,1,1054,e90f9e327d4688850c305939f36b5f32
4,277,28,73,2,2,1,1185,e90f9e327d4688850c305939f36b5f32
4,278,19,28,1,1,1,805,e90f9e327d4688850c305939f36b5f32
4,279,73,64,4,4,1,1164,e90f9e327d4688850c305939f36b5f32
4,280,37,19,1,1,1,1355,e90f9e327d4688850c305939f36b5f32
4,281,10,19,1,1,1,769,e90f9e327d4688850c305939f36b5f32
4,282,82,19,3,3,1,878,e90f9e327d4688850c305939f36b5f32
4,283,64,10,3,3,1,1098,e90f9e327d4688850c305939f36b5f32
4,284,73,10,3,3,1,840,e90f9e327d4688850c305939f36b5f32
4,285,55,64,4,4,1,894,e90f9e327d4688850c305939f36b5f32
4,286,55,37,3,3,1,1087,e90f9e327d4688850c305939f36b5f32
4,287,37,10,1,1,1,1555,e90f9e327d4688850c305939f36b5f32
4,288,37,46,1,1,1,1425,e90f9e327d4688850c305939f36b5f32
4,289,91,46,3,3,1,934,e90f9e327d4688850c305939f36b5f32
4,290,28,28,1,1,1,894,e90f9e327d4688850c305939f36b5f32
4,291,73,28,3,3,1,1203,e90f9e327d4688850c305939f36b5f32
4,292,28,64,2,2,1,1017,e90f9e327d4688850c305939f36b5f32
4,293,82,73,4,4,1,1010,e90f9e327d4688850c305939f36b5f32
4,294,37,64,2,4,0,1110,e90f9e327d4688850c305939f36b5f32
4,295,37,82,2,2,1,1006,e90f9e327d4688850c305939f36b5f32
4,296,73,37,3,3,1,1044,e90f9e327d4688850c305939f36b5f32
4,297,46,73,2,4,0,1146,e90f9e327d4688850c305939f36b5f32
4,298,10,46,1,1,1,1225,e90f9e327d4688850c305939f36b5f32
4,299,91,91,4,4,1,926,e90f9e327d4688850c305939f36b5f32
4,300,73,19,3,3,1,989,e90f9e327d4688850c305939f36b5f32
4,301,82,19,3,3,1,838,e90f9e327d4688850c305939f36b5f32
4,302,55,37,3,3,1,1003,e90f9e327d4688850c305939f36b5f32
4,303,28,73,2,2,1,911,e90f9e327d4688850c305939f36b5f32
4,304,19,82,2,2,1,752,e90f9e327d4688850c305939f36b5f32
4,305,37,82,2,2,1,752,e90f9e327d4688850c305939f36b5f32
4,306,19,55,2,2,1,1175,e90f9e327d4688850c305939f36b5f32
4,307,64,55,4,3,0,1025,e90f9e327d4688850c305939f36b5f32
4,308,46,46,1,3,0,1174,e90f9e327d4688850c305939f36b5f32
4,309,82,73,4,4,1,1056,e90f9e327d4688850c305939f36b5f32
4,310,73,28,3,3,1,893,e90f9e327d4688850c305939f36b5f32
4,311,64,64,4,4,1,979,e90f9e327d4688850c305939f36b5f32
4,312,37,37,1,1,1,1094,e90f9e327d4688850c305939f36b5f32
4,313,37,73,2,2,1,793,e90f9e327d4688850c305939f36b5f32
4,314,55,73,4,4,1,1448,e90f9e327d4688850c305939f36b5f32
4,315,46,55,2,3,0,1223,e90f9e327d4688850c305939f36b5f32
4,316,91,46,3,3,1,1112,e90f9e327d4688850c305939f36b5f32
4,317,46,73,2,2,1,959,e90f9e327d4688850c305939f36b5f32
4,318,19,46,1,1,1,993,e90f9e327d4688850c305939f36b5f32
4,319,91,19,3,3,1,984,e90f9e327d4688850c305939f36b5f32
4,320,37,55,2,2,1,1285,e90f9e327d4688850c305939f36b5f32
4,321,55,91,4,4,1,1856,e90f9e327d4688850c305939f36b5f32
4,322,91,64,4,4,1,1141,e90f9e327d4688850c305939f36b5f32
4,323,10,10,1,1,1,846,e90f9e327d4688850c305939f36b5f32
4,324,28,19,1,1,1,765,e90f9e327d4688850c305939f36b5f32
4,325,46,28,1,1,1,885,e90f9e327d4688850c305939f36b5f32
4,326,91,37,3,3,1,936,e90f9e327d4688850c305939f36b5f32
4,327,55,46,3,2,0,1499,e90f9e327d4688850c305939f36b5f32
4,328,73,37,3,3,1,1128,e90f9e327d4688850c305939f36b5f32
4,329,37,10,1,1,1,936,e90f9e327d4688850c305939f36b5f32
4,330,28,46,1,1,1,1144,e90f9e327d4688850c305939f36b5f32
4,331,10,64,2,2,1,854,e90f9e327d4688850c305939f36b5f32
4,332,46,37,1,1,1,1237,e90f9e327d4688850c305939f36b5f32
4,333,46,10,1,1,1,993,e90f9e327d4688850c305939f36b5f32
4,334,91,82,4,4,1,1064,e90f9e327d4688850c305939f36b5f32
4,335,91,28,3,3,1,903,e90f9e327d4688850c305939f36b5f32
4,336,73,91,4,4,1,873,e90f9e327d4688850c305939f36b5f32
4,337,82,91,4,4,1,777,e90f9e327d4688850c305939f36b5f32
4,338,10,46,1,2,0,1288,e90f9e327d4688850c305939f36b5f32
4,339,10,73,2,2,1,1010,e90f9e327d4688850c305939f36b5f32
4,340,55,10,3,3,1,1267,e90f9e327d4688850c305939f36b5f32
4,341,82,46,3,3,1,963,e90f9e327d4688850c305939f36b5f32
4,342,55,64,4,4,1,898,e90f9e327d4688850c305939f36b5f32
4,343,19,28,1,1,1,1309,e90f9e327d4688850c305939f36b5f32
4,344,73,46,3,3,1,1195,e90f9e327d4688850c305939f36b5f32
4,345,91,55,4,4,1,939,e90f9e327d4688850c305939f36b5f32
4,346,64,37,3,3,1,957,e90f9e327d4688850c305939f36b5f32
4,347,73,73,4,4,1,926,e90f9e327d4688850c305939f36b5f32
4,348,64,10,3,3,1,1389,e90f9e327d4688850c305939f36b5f32
4,349,73,64,4,4,1,1202,e90f9e327d4688850c305939f36b5f32
4,350,64,28,3,3,1,918,e90f9e327d4688850c305939f36b5f32
4,351,19,64,2,2,1,969,e90f9e327d4688850c305939f36b5f32
4,352,19,19,1,1,1,906,e90f9e327d4688850c305939f36b5f32
4,353,64,82,4,4,1,938,e90f9e327d4688850c305939f36b5f32
4,354,37,46,1,3,0,1264,e90f9e327d4688850c305939f36b5f32
4,355,19,73,2,2,1,885,e90f9e327d4688850c305939f36b5f32
4,356,91,73,4,4,1,1156,e90f9e327d4688850c305939f36b5f32
4,357,64,91,4,4,1,1043,e90f9e327d4688850c305939f36b5f32
4,358,55,55,4,4,1,1436,e90f9e327d4688850c305939f36b5f32
4,359,82,55,4,4,1,1133,e90f9e327d4688850c305939f36b5f32
4,360,28,82,2,2,1,1943,e90f9e327d4688850c305939f36b5f32
4,361,19,37,1,1,1,1007,e90f9e327d4688850c305939f36b5f32
4,362,10,28,1,1,1,918,e90f9e327d4688850c305939f36b5f32
4,363,28,28,1,1,1,874,e90f9e327d4688850c305939f36b5f32
4,364,64,73,4,4,1,903,e90f9e327d4688850c305939f36b5f32
4,365,10,37,1,1,1,935,e90f9e327d4688850c305939f36b5f32
4,366,37,91,2,2,1,1105,e90f9e327d4688850c305939f36b5f32
4,367,37,19,1,1,1,839,e90f9e327d4688850c305939f36b5f32
4,368,82,64,4,4,1,1024,e90f9e327d4688850c305939f36b5f32
4,369,19,91,2,2,1,920,e90f9e327d4688850c305939f36b5f32
4,370,64,46,3,3,1,1287,e90f9e327d4688850c305939f36b5f32
4,371,37,64,2,2,1,1476,e90f9e327d4688850c305939f36b5f32
4,372,10,91,2,2,1,864,e90f9e327d4688850c305939f36b5f32
4,373,55,28,3,3,1,1038,e90f9e327d4688850c305939f36b5f32
4,374,28,64,2,2,1,1488,e90f9e327d4688850c305939f36b5f32
4,375,46,82,2,2,1,837,e90f9e327d4688850c305939f36b5f32
4,376,64,19,3,3,1,1043,e90f9e327d4688850c305939f36b5f32
4,377,73,82,4,4,1,1055,e90f9e327d4688850c305939f36b5f32
4,378,46,64,2,4,0,1078,e90f9e327d4688850c305939f36b5f32
4,379,82,37,3,3,1,1045,e90f9e327d4688850c305939f36b5f32
4,380,73,10,3,3,1,1144,e90f9e327d4688850c305939f36b5f32
4,381,10,55,2,2,1,938,e90f9e327d4688850c305939f36b5f32
4,382,19,10,1,1,1,814,e90f9e327d4688850c305939f36b5f32
4,383,10,82,2,1,0,982,e90f9e327d4688850c305939f36b5f32
4,384,28,55,2,2,1,862,e90f9e327d4688850c305939f36b5f32
4,385,91,10,3,3,1,1023,e90f9e327d4688850c305939f36b5f32
4,386,10,19,1,1,1,1124,e90f9e327d4688850c305939f36b5f32
4,387,73,55,4,4,1,1233,e90f9e327d4688850c305939f36b5f32
4,388,82,28,3,3,1,857,e90f9e327d4688850c305939f36b5f32
4,389,46,19,1,1,1,1231,e90f9e327d4688850c305939f36b5f32
4,390,82,10,3,3,1,948,e90f9e327d4688850c305939f36b5f32
4,391,91,91,4,4,1,855,e90f9e327d4688850c305939f36b5f32
4,392,55,19,3,3,1,1011,e90f9e327d4688850c305939f36b5f32
4,393,28,37,1,2,0,1374,e90f9e327d4688850c305939f36b5f32
4,394,46,91,2,4,0,875,e90f9e327d4688850c305939f36b5f32
4,395,28,10,1,1,1,836,e90f9e327d4688850c305939f36b5f32
4,396,28,91,2,2,1,945,e90f9e327d4688850c305939f36b5f32
4,397,82,82,4,4,1,881,e90f9e327d4688850c305939f36b5f32
4,398,37,28,1,1,1,1083,e90f9e327d4688850c305939f36b5f32
4,399,55,82,4,2,0,1104,e90f9e327d4688850c305939f36b5f32
1,0,73,73,1,8,9999,501,c5f4d9de130df037bf1f81d764702aaf
1,1,73,55,1,7,9999,1319,c5f4d9de130df037bf1f81d764702aaf
1,2,91,46,1,7,9999,1215,c5f4d9de130df037bf1f81d764702aaf
1,3,64,19,1,5,9999,1541,c5f4d9de130df037bf1f81d764702aaf
1,4,28,19,1,5,9999,1434,c5f4d9de130df037bf1f81d764702aaf
1,5,91,73,1,3,9999,2103,c5f4d9de130df037bf1f81d764702aaf
1,6,19,91,1,1,9999,1850,c5f4d9de130df037bf1f81d764702aaf
1,7,10,19,1,4,9999,2460,c5f4d9de130df037bf1f81d764702aaf
1,8,55,73,1,1,9999,2264,c5f4d9de130df037bf1f81d764702aaf
1,9,37,19,1,4,9999,2332,c5f4d9de130df037bf1f81d764702aaf
1,10,55,10,1,8,9999,1499,c5f4d9de130df037bf1f81d764702aaf
1,11,91,19,1,7,9999,1255,c5f4d9de130df037bf1f81d764702aaf
1,12,64,64,1,5,9999,1631,c5f4d9de130df037bf1f81d764702aaf
1,13,64,55,1,8,9999,1504,c5f4d9de130df037bf1f81d764702aaf
1,14,46,10,1,4,9999,1267,c5f4d9de130df037bf1f81d764702aaf
1,15,37,64,1,4,9999,2361,c5f4d9de130df037bf1f81d764702aaf
1,16,82,91,1,1,9999,1509,c5f4d9de130df037bf1f81d764702aaf
1,17,82,55,1,3,9999,2002,c5f4d9de130df037bf1f81d764702aaf
1,18,73,64,1,7,9999,1468,c5f4d9de130df037bf1f81d764702aaf
1,19,37,46,1,5,9999,1665,c5f4d9de130df037bf1f81d764702aaf
1,20,19,82,1,3,9999,1925,c5f4d9de130df037bf1f81d764702aaf
1,21,64,91,1,6,9999,1447,c5f4d9de130df037bf1f81d764702aaf
1,22,37,10,1,2,9999,2018,c5f4d9de130df037bf1f81d764702aaf
1,23,37,28,1,5,9999,1858,c5f4d9de130df037bf1f81d764702aaf
1,24,82,28,1,6,9999,2494,c5f4d9de130df037bf1f81d764702aaf
1,25,91,64,1,4,9999,1844,c5f4d9de130df037bf1f81d764702aaf
1,26,28,91,1,3,9999,2163,c5f4d9de130df037bf1f81d764702aaf
1,27,10,64,1,5,9999,2057,c5f4d9de130df037bf1f81d764702aaf
1,28,82,73,1,7,9999,1667,c5f4d9de130df037bf1f81d764702aaf
1,29,64,37,1,5,9999,1651,c5f4d9de130df037bf1f81d764702aaf
1,30,10,82,1,3,9999,1379,c5f4d9de130df037bf1f81d764702aaf
1,31,19,55,1,4,9999,1372,c5f4d9de130df037bf1f81d764702aaf
1,32,46,28,1,5,9999,1265,c5f4d9de130df037bf1f81d764702aaf
1,33,91,91,1,2,9999,2035,c5f4d9de130df037bf1f81d764702aaf
1,34,10,91,1,7,9999,1431,c5f4d9de130df037bf1f81d764702aaf
1,35,37,55,1,4,9999,2767,c5f4d9de130df037bf1f81d764702aaf
1,36,73,91,1,2,9999,2374,c5f4d9de130df037bf1f81d764702aaf
1,37,28,73,1,6,9999,1275,c5f4d9de130df037bf1f81d764702aaf
1,38,82,46,1,3,9999,2106,c5f4d9de130df037bf1f81d764702aaf
1,39,28,37,1,6,9999,1531,c5f4d9de130df037bf1f81d764702aaf
1,40,10,28,1,7,9999,1107,c5f4d9de130df037bf1f81d764702aaf
1,41,46,64,1,5,9999,1520,c5f4d9de130df037bf1f81d764702aaf
1,42,55,82,1,4,9999,2249,c5f4d9de130df037bf1f81d764702aaf
1,43,64,46,1,5,9999,1946,c5f4d9de130df037bf1f81d764702aaf
1,44,73,10,1,2,9999,1584,c5f4d9de130df037bf1f81d764702aaf
1,45,55,19,1,7,9999,2475,c5f4d9de130df037bf1f81d764702aaf
1,46,46,55,1,6,9999,1326,c5f4d9de130df037bf1f81d764702aaf
1,47,82,19,1,6,9999,1451,c5f4d9de130df037bf1f81d764702aaf
1,48,37,91,1,1,9999,1438,c5f4d9de130df037bf1f81d764702aaf
1,49,28,82,1,5,9999,1988,c5f4d9de130df037bf1f81d764702aaf
1,50,28,64,1,6,9999,1525,c5f4d9de130df037bf1f81d764702aaf
1,51,64,82,1,6,9999,2203,c5f4d9de130df037bf1f81d764702aaf
1,52,46,19,1,3,9999,1743,c5f4d9de130df037bf1f81d764702aaf
1,53,91,28,1,5,9999,1471,c5f4d9de130df037bf1f81d764702aaf
1,54,10,55,1,2,9999,2400,c5f4d9de130df037bf1f81d764702aaf
1,55,46,91,1,2,9999,2171,c5f4d9de130df037bf1f81d764702aaf
1,56,64,73,1,5,9999,2599,c5f4d9de130df037bf1f81d764702aaf
1,57,82,82,1,7,9999,2183,c5f4d9de130df037bf1f81d764702aaf
1,58,37,37,1,2,9999,1431,c5f4d9de130df037bf1f81d764702aaf
1,59,19,28,1,4,9999,2003,c5f4d9de130df037bf1f81d764702aaf
1,60,91,55,1,4,9999,1122,c5f4d9de130df037bf1f81d764702aaf
1,61,28,55,1,5,9999,1415,c5f4d9de130df037bf1f81d764702aaf
1,62,73,46,1,5,9999,1094,c5f4d9de130df037bf1f81d764702aaf
1,63,19,37,1,3,9999,1298,c5f4d9de130df037bf1f81d764702aaf
1,64,55,64,1,4,9999,1585,c5f4d9de130df037bf1f81d764702aaf
1,65,82,10,1,1,9999,1402,c5f4d9de130df037bf1f81d764702aaf
1,66,28,28,1,5,9999,2898,c5f4d9de130df037bf1f81d764702aaf
1,67,46,46,1,6,9999,2059,c5f4d9de130df037bf1f81d764702aaf
1,68,55,91,1,3,9999,1468,c5f4d9de130df037bf1f81d764702aaf
1,69,64,10,1,3,9999,2162,c5f4d9de130df037bf1f81d764702aaf
1,70,55,46,1,5,9999,2807,c5f4d9de130df037bf1f81d764702aaf
1,71,37,82,1,3,9999,1486,c5f4d9de130df037bf1f81d764702aaf
1,72,19,64,1,3,9999,1411,c5f4d9de130df037bf1f81d764702aaf
1,73,19,46,1,5,9999,1499,c5f4d9de130df037bf1f81d764702aaf
1,74,19,19,1,4,9999,1772,c5f4d9de130df037bf1f81d764702aaf
1,75,28,10,1,6,9999,1843,c5f4d9de130df037bf1f81d764702aaf
1,76,73,19,1,6,9999,1234,c5f4d9de130df037bf1f81d764702aaf
1,77,19,73,1,6,9999,2030,c5f4d9de130df037bf1f81d764702aaf
1,78,91,37,1,3,9999,1351,c5f4d9de130df037bf1f81d764702aaf
1,79,37,73,1,3,9999,1186,c5f4d9de130df037bf1f81d764702aaf
1,80,73,82,1,4,9999,1291,c5f4d9de130df037bf1f81d764702aaf
1,81,28,46,1,2,9999,1708,c5f4d9de130df037bf1f81d764702aaf
1,82,10,37,1,4,9999,1276,c5f4d9de130df037bf1f81d764702aaf
1,83,82,64,1,4,9999,1105,c5f4d9de130df037bf1f81d764702aaf
1,84,46,82,1,3,9999,1253,c5f4d9de130df037bf1f81d764702aaf
1,85,10,73,1,3,9999,2057,c5f4d9de130df037bf1f81d764702aaf
1,86,91,10,1,1,9999,1393,c5f4d9de130df037bf1f81d764702aaf
1,87,55,28,1,3,9999,2073,c5f4d9de130df037bf1f81d764702aaf
1,88,55,37,1,6,9999,1478,c5f4d9de130df037bf1f81d764702aaf
1,89,10,10,1,3,9999,1300,c5f4d9de130df037bf1f81d764702aaf
1,90,46,37,1,4,9999,1451,c5f4d9de130df037bf1f81d764702aaf
1,91,46,73,1,1,9999,1351,c5f4d9de130df037bf1f81d764702aaf
1,92,82,37,1,3,9999,1198,c5f4d9de130df037bf1f81d764702aaf
1,93,91,82,1,1,9999,1622,c5f4d9de130df037bf1f81d764702aaf
1,94,10,46,1,4,9999,1572,c5f4d9de130df037bf1f81d764702aaf
1,95,55,55,1,6,9999,1698,c5f4d9de130df037bf1f81d764702aaf
1,96,64,28,1,4,9999,1394,c5f4d9de130df037bf1f81d764702aaf
1,97,73,28,1,3,9999,1903,c5f4d9de130df037bf1f81d764702aaf
1,98,19,10,1,5,9999,1872,c5f4d9de130df037bf1f81d764702aaf
1,99,73,37,1,5,9999,1491,c5f4d9de130df037bf1f81d764702aaf
1,100,46,82,1,8,9999,1872,c5f4d9de130df037bf1f81d764702aaf
1,101,10,46,1,4,9999,2713,c5f4d9de130df037bf1f81d764702aaf
1,102,46,91,1,3,9999,3421,c5f4d9de130df037bf1f81d764702aaf
1,103,37,28,1,1,9999,1387,c5f4d9de130df037bf1f81d764702aaf
1,104,73,28,1,3,9999,2114,c5f4d9de130df037bf1f81d764702aaf
1,105,64,46,1,5,9999,1553,c5f4d9de130df037bf1f81d764702aaf
1,106,19,82,1,4,9999,1275,c5f4d9de130df037bf1f81d764702aaf
1,107,28,28,1,1,9999,1269,c5f4d9de130df037bf1f81d764702aaf
1,108,28,55,1,4,9999,1254,c5f4d9de130df037bf1f81d764702aaf
1,109,91,64,1,5,9999,1138,c5f4d9de130df037bf1f81d764702aaf
1,110,73,55,1,4,9999,1131,c5f4d9de130df037bf1f81d764702aaf
1,111,10,91,1,1,9999,1816,c5f4d9de130df037bf1f81d764702aaf
1,112,10,19,1,1,9999,797,c5f4d9de130df037bf1f81d764702aaf
1,113,19,91,1,1,9999,685,c5f4d9de130df037bf1f81d764702aaf
1,114,10,82,1,6,9999,1639,c5f4d9de130df037bf1f81d764702aaf
1,115,55,91,1,7,9999,1359,c5f4d9de130df037bf1f81d764702aaf
1,116,28,46,1,3,9999,1188,c5f4d9de130df037bf1f81d764702aaf
1,117,55,55,1,3,9999,1780,c5f4d9de130df037bf1f81d764702aaf
1,118,55,46,1,6,9999,1216,c5f4d9de130df037bf1f81d764702aaf
1,119,10,64,1,7,9999,967,c5f4d9de130df037bf1f81d764702aaf
1,120,91,10,1,1,9999,999,c5f4d9de130df037bf1f81d764702aaf
1,121,37,55,1,2,9999,1706,c5f4d9de130df037bf1f81d764702aaf
1,122,91,37,1,5,9999,1434,c5f4d9de130df037bf1f81d764702aaf
1,123,55,64,1,5,9999,861,c5f4d9de130df037bf1f81d764702aaf
1,124,10,10,1,1,9999,1634,c5f4d9de130df037bf1f81d764702aaf
1,125,19,28,1,2,9999,1662,c5f4d9de130df037bf1f81d764702aaf
1,126,82,46,1,3,9999,1648,c5f4d9de130df037bf1f81d764702aaf
1,127,28,91,1,1,9999,1306,c5f4d9de130df037bf1f81d764702aaf
1,128,64,19,1,1,9999,1714,c5f4d9de130df037bf1f81d764702aaf
1,129,46,19,1,7,9999,1605,c5f4d9de130df037bf1f81d764702aaf
1,130,91,73,1,4,9999,1359,c5f4d9de130df037bf1f81d764702aaf
1,131,37,46,1,7,9999,1446,c5f4d9de130df037bf1f81d764702aaf
1,132,73,46,1,6,9999,1365,c5f4d9de130df037bf1f81d764702aaf
1,133,46,73,1,5,9999,1055,c5f4d9de130df037bf1f81d764702aaf
1,134,55,28,1,3,9999,2121,c5f4d9de130df037bf1f81d764702aaf
1,135,73,10,1,1,9999,1380,c5f4d9de130df037bf1f81d764702aaf
1,136,46,64,1,1,9999,1322,c5f4d9de130df037bf1f81d764702aaf
1,137,82,37,1,7,9999,1405,c5f4d9de130df037bf1f81d764702aaf
1,138,82,10,1,1,9999,1564,c5f4d9de130df037bf1f81d764702aaf
1,139,28,73,1,1,9999,1620,c5f4d9de130df037bf1f81d764702aaf
1,140,19,19,1,1,9999,1212,c5f4d9de130df037bf1f81d764702aaf
1,141,28,10,1,6,9999,1602,c5f4d9de130df037bf1f81d764702aaf
1,142,19,37,1,5,9999,1142,c5f4d9de130df037bf1f81d764702aaf
1,143,64,55,1,6,9999,1434,c5f4d9de130df037bf1f81d764702aaf
1,144,82,55,1,6,9999,1381,c5f4d9de130df037bf1f81d764702aaf
1,145,10,37,1,4,9999,1320,c5f4d9de130df037bf1f81d764702aaf
1,146,64,10,1,1,9999,1934,c5f4d9de130df037bf1f81d764702aaf
1,147,37,64,1,4,9999,1398,c5f4d9de130df037bf1f81d764702aaf
1,148,91,28,1,4,9999,926,c5f4d9de130df037bf1f81d764702aaf
1,149,91,46,1,5,9999,1389,c5f4d9de130df037bf1f81d764702aaf
1,150,64,28,1,3,9999,1091,c5f4d9de130df037bf1f81d764702aaf
1,151,91,55,1,5,9999,916,c5f4d9de130df037bf1f81d764702aaf
1,152,37,10,1,2,9999,1061,c5f4d9de130df037bf1f81d764702aaf
1,153,91,19,1,5,9999,1473,c5f4d9de130df037bf1f81d764702aaf
1,154,46,46,1,4,9999,999,c5f4d9de130df037bf1f81d764702aaf
1,155,55,73,1,2,9999,1497,c5f4d9de130df037bf1f81d764702aaf
1,156,37,37,1,4,9999,1012,c5f4d9de130df037bf1f81d764702aaf
1,157,19,46,1,5,9999,964,c5f4d9de130df037bf1f81d764702aaf
1,158,46,55,1,5,9999,891,c5f4d9de130df037bf1f81d764702aaf
1,159,55,19,1,4,9999,807,c5f4d9de130df037bf1f81d764702aaf
1,160,10,55,1,5,9999,1749,c5f4d9de130df037bf1f81d764702aaf
1,161,10,73,1,5,9999,845,c5f4d9de130df037bf1f81d764702aaf
1,162,91,82,1,6,9999,1134,c5f4d9de130df037bf1f81d764702aaf
1,163,28,64,1,5,9999,908,c5f4d9de130df037bf1f81d764702aaf
1,164,28,82,1,5,9999,699,c5f4d9de130df037bf1f81d764702aaf
1,165,73,64,1,5,9999,1008,c5f4d9de130df037bf1f81d764702aaf
1,166,82,82,1,3,9999,1038,c5f4d9de130df037bf1f81d764702aaf
1,167,46,10,1,1,9999,1682,c5f4d9de130df037bf1f81d764702aaf
1,168,46,28,1,5,9999,1357,c5f4d9de130df037bf1f81d764702aaf
1,169,10,28,1,6,9999,1352,c5f4d9de130df037bf1f81d764702aaf
