n_categories,session,trial_id,stim_id_l,x1_true_l,x2_true_l,stim_id_r,x1_true_r,x2_true_r,d_euclidean,response,rt,Sex,participant_id,comparison_pool,pool_left,pool_right
1,1,0,7,10,64,47,46,64,36,1,12115,Female,186e3b19d985e2ce813010ff317d4126,same,2,2
1,1,1,11,19,10,68,64,73,77.42,1,4228,Female,186e3b19d985e2ce813010ff317d4126,cross,1,4
1,1,2,95,91,46,65,64,46,27,4,10901,Female,186e3b19d985e2ce813010ff317d4126,same,3,3
1,1,3,55,55,46,33,37,28,25.46,3,9873,Female,186e3b19d985e2ce813010ff317d4126,side,3,1
1,1,4,60,55,91,71,73,10,82.98,2,22984,Female,186e3b19d985e2ce813010ff317d4126,side,4,3
1,1,5,34,37,37,50,46,91,54.74,2,4033,Female,186e3b19d985e2ce813010ff317d4126,side,1,2
1,1,6,95,91,46,99,91,82,36,5,11089,Female,186e3b19d985e2ce813010ff317d4126,side,3,4
1,1,7,62,64,19,52,55,19,9,7,9379,Female,186e3b19d985e2ce813010ff317d4126,same,3,3
1,1,8,83,82,28,55,55,46,32.45,3,16667,Female,186e3b19d985e2ce813010ff317d4126,same,3,3
1,1,9,32,37,19,43,46,28,12.73,7,7084,Female,186e3b19d985e2ce813010ff317d4126,same,1,1
1,1,10,59,55,82,26,28,55,38.18,2,13288,Female,186e3b19d985e2ce813010ff317d4126,side,4,2
1,1,11,51,55,10,49,46,82,72.56,7,14929,Female,186e3b19d985e2ce813010ff317d4126,cross,3,2
1,1,12,52,55,19,55,55,46,27,7,20833,Female,186e3b19d985e2ce813010ff317d4126,same,3,3
1,1,13,87,82,64,19,19,82,65.52,2,11319,Female,186e3b19d985e2ce813010ff317d4126,side,4,2
1,1,14,15,19,46,13,19,28,18,7,4901,Female,186e3b19d985e2ce813010ff317d4126,same,1,1
1,1,15,78,73,73,81,82,10,63.64,7,5344,Female,186e3b19d985e2ce813010ff317d4126,side,4,3
1,1,16,42,46,19,97,91,64,63.64,1,7278,Female,186e3b19d985e2ce813010ff317d4126,cross,1,4
1,1,17,51,55,10,83,82,28,32.45,2,4617,Female,186e3b19d985e2ce813010ff317d4126,same,3,3
1,1,18,96,91,55,68,64,73,32.45,3,5839,Female,186e3b19d985e2ce813010ff317d4126,same,4,4
1,1,19,5,10,46,95,91,46,81,1,2339,Female,186e3b19d985e2ce813010ff317d4126,side,1,3
1,1,20,92,91,19,94,91,37,18,7,3049,Female,186e3b19d985e2ce813010ff317d4126,same,3,3
1,1,21,85,82,46,98,91,73,28.46,7,2416,Female,186e3b19d985e2ce813010ff317d4126,side,3,4
1,1,22,29,28,82,6,10,55,32.45,7,3027,Female,186e3b19d985e2ce813010ff317d4126,same,2,2
1,1,23,57,55,64,89,82,82,32.45,7,3374,Female,186e3b19d985e2ce813010ff317d4126,same,4,4
1,1,24,70,64,91,41,46,10,82.98,6,2666,Female,186e3b19d985e2ce813010ff317d4126,cross,4,1
1,1,25,49,46,82,56,55,55,28.46,7,2139,Female,186e3b19d985e2ce813010ff317d4126,side,2,4
1,1,26,84,82,37,79,73,82,45.89,7,2050,Female,186e3b19d985e2ce813010ff317d4126,side,3,4
1,1,27,100,91,91,65,64,46,52.48,7,5757,Female,186e3b19d985e2ce813010ff317d4126,side,4,3
1,1,28,14,19,37,42,46,19,32.45,6,4634,Female,186e3b19d985e2ce813010ff317d4126,same,1,1
1,1,29,44,46,37,86,82,55,40.25,2,13309,Female,186e3b19d985e2ce813010ff317d4126,cross,1,4
1,1,30,77,73,64,35,37,46,40.25,3,4512,Female,186e3b19d985e2ce813010ff317d4126,cross,4,1
1,1,31,89,82,82,84,82,37,45,7,2828,Female,186e3b19d985e2ce813010ff317d4126,side,4,3
1,1,32,69,64,82,79,73,82,9,8,1897,Female,186e3b19d985e2ce813010ff317d4126,same,4,4
1,1,33,23,28,28,3,10,28,18,7,5551,Female,186e3b19d985e2ce813010ff317d4126,same,1,1
1,1,34,69,64,82,27,28,64,40.25,6,5897,Female,186e3b19d985e2ce813010ff317d4126,side,4,2
1,1,35,6,10,55,95,91,46,81.5,2,13460,Female,186e3b19d985e2ce813010ff317d4126,cross,2,3
1,1,36,66,64,55,57,55,64,12.73,7,8961,Female,186e3b19d985e2ce813010ff317d4126,same,4,4
1,1,37,2,10,19,3,10,28,9,7,3124,Female,186e3b19d985e2ce813010ff317d4126,same,1,1
1,1,38,20,19,91,26,28,55,37.11,6,3517,Female,186e3b19d985e2ce813010ff317d4126,same,2,2
1,1,39,29,28,82,19,19,82,9,8,2275,Female,186e3b19d985e2ce813010ff317d4126,same,2,2
1,1,40,53,55,28,5,10,46,48.47,4,6498,Female,186e3b19d985e2ce813010ff317d4126,side,3,1
1,1,41,96,91,55,56,55,55,36,5,6993,Female,186e3b19d985e2ce813010ff317d4126,same,4,4
1,1,42,32,37,19,73,73,28,37.11,4,7789,Female,186e3b19d985e2ce813010ff317d4126,side,1,3
1,1,43,48,46,73,95,91,46,52.48,1,9870,Female,186e3b19d985e2ce813010ff317d4126,cross,2,3
1,1,44,15,19,46,39,37,82,40.25,2,6238,Female,186e3b19d985e2ce813010ff317d4126,side,1,2
1,1,45,24,28,37,77,73,64,52.48,1,22410,Female,186e3b19d985e2ce813010ff317d4126,cross,1,4
1,1,46,95,91,46,47,46,64,48.47,2,4460,Female,186e3b19d985e2ce813010ff317d4126,cross,3,2
1,1,47,78,73,73,40,37,91,40.25,2,3217,Female,186e3b19d985e2ce813010ff317d4126,side,4,2
1,1,48,31,37,10,29,28,82,72.56,3,6573,Female,186e3b19d985e2ce813010ff317d4126,side,1,2
1,1,49,100,91,91,69,64,82,28.46,7,5415,Female,186e3b19d985e2ce813010ff317d4126,same,4,4
1,1,50,31,37,10,35,37,46,36,7,5906,Female,186e3b19d985e2ce813010ff317d4126,same,1,1
1,1,51,36,37,55,87,82,64,45.89,7,5959,Female,186e3b19d985e2ce813010ff317d4126,side,2,4
1,1,52,92,91,19,67,64,64,52.48,3,10620,Female,186e3b19d985e2ce813010ff317d4126,side,3,4
1,1,53,81,82,10,54,55,37,38.18,3,7976,Female,186e3b19d985e2ce813010ff317d4126,same,3,3
1,1,54,9,10,82,85,82,46,80.5,1,7721,Female,186e3b19d985e2ce813010ff317d4126,cross,2,3
1,1,55,75,73,46,3,10,28,65.52,1,10002,Female,186e3b19d985e2ce813010ff317d4126,side,3,1
1,1,56,43,46,28,6,10,55,45,2,5145,Female,186e3b19d985e2ce813010ff317d4126,side,1,2
1,1,57,11,19,10,54,55,37,45,1,2642,Female,186e3b19d985e2ce813010ff317d4126,side,1,3
1,1,58,90,82,91,16,19,55,72.56,2,4853,Female,186e3b19d985e2ce813010ff317d4126,side,4,2
1,1,59,57,55,64,76,73,55,20.12,7,14070,Female,186e3b19d985e2ce813010ff317d4126,same,4,4
1,1,60,35,37,46,75,73,46,36,7,19962,Female,186e3b19d985e2ce813010ff317d4126,side,1,3
1,1,61,63,64,28,95,91,46,32.45,6,9588,Female,186e3b19d985e2ce813010ff317d4126,same,3,3
1,1,62,40,37,91,63,64,28,68.54,6,24542,Female,186e3b19d985e2ce813010ff317d4126,cross,2,3
1,1,63,61,64,10,15,19,46,57.63,5,13455,Female,186e3b19d985e2ce813010ff317d4126,side,3,1
1,1,64,88,82,73,31,37,10,77.42,1,4286,Female,186e3b19d985e2ce813010ff317d4126,cross,4,1
1,1,65,9,10,82,28,28,73,20.12,2,3972,Female,186e3b19d985e2ce813010ff317d4126,same,2,2
1,1,66,73,73,28,53,55,28,18,7,10837,Female,186e3b19d985e2ce813010ff317d4126,same,3,3
1,1,67,30,28,91,90,82,91,54,4,4903,Female,186e3b19d985e2ce813010ff317d4126,side,2,4
1,1,68,69,64,82,58,55,73,12.73,8,3471,Female,186e3b19d985e2ce813010ff317d4126,same,4,4
1,1,69,1,10,10,7,10,64,54,6,5813,Female,186e3b19d985e2ce813010ff317d4126,side,1,2
1,1,70,58,55,73,54,55,37,36,7,4241,Female,186e3b19d985e2ce813010ff317d4126,side,4,3
1,1,71,91,91,10,79,73,82,74.22,7,16239,Female,186e3b19d985e2ce813010ff317d4126,side,3,4
1,1,72,47,46,64,74,73,37,38.18,6,4294,Female,186e3b19d985e2ce813010ff317d4126,cross,2,3
1,1,73,21,28,10,57,55,64,60.37,5,11953,Female,186e3b19d985e2ce813010ff317d4126,cross,1,4
1,1,74,40,37,91,19,19,82,20.12,7,3274,Female,186e3b19d985e2ce813010ff317d4126,same,2,2
1,1,75,39,37,82,95,91,46,64.9,1,3184,Female,186e3b19d985e2ce813010ff317d4126,cross,2,3
1,1,76,89,82,82,11,19,10,95.67,1,17130,Female,186e3b19d985e2ce813010ff317d4126,cross,4,1
1,1,77,97,91,64,80,73,91,32.45,7,3522,Female,186e3b19d985e2ce813010ff317d4126,same,4,4
1,1,78,11,19,10,39,37,82,74.22,6,3534,Female,186e3b19d985e2ce813010ff317d4126,side,1,2
1,1,79,31,37,10,8,10,73,68.54,4,4492,Female,186e3b19d985e2ce813010ff317d4126,side,1,2
1,1,80,80,73,91,57,55,64,32.45,7,2694,Female,186e3b19d985e2ce813010ff317d4126,same,4,4
1,1,81,95,91,46,1,10,10,88.64,1,2203,Female,186e3b19d985e2ce813010ff317d4126,side,3,1
1,1,82,32,37,19,93,91,28,54.74,6,18910,Female,186e3b19d985e2ce813010ff317d4126,side,1,3
1,1,83,4,10,37,87,82,64,76.9,1,17491,Female,186e3b19d985e2ce813010ff317d4126,cross,1,4
1,1,84,90,82,91,8,10,73,74.22,3,5133,Female,186e3b19d985e2ce813010ff317d4126,side,4,2
1,1,85,73,73,28,29,28,82,70.29,1,5444,Female,186e3b19d985e2ce813010ff317d4126,cross,3,2
1,1,86,43,46,28,37,37,64,37.11,6,31152,Female,186e3b19d985e2ce813010ff317d4126,side,1,2
1,1,87,50,46,91,20,19,91,27,7,26726,Female,186e3b19d985e2ce813010ff317d4126,same,2,2
1,1,88,96,91,55,27,28,64,63.64,4,5798,Female,186e3b19d985e2ce813010ff317d4126,side,4,2
1,1,89,24,28,37,37,37,64,28.46,4,3503,Female,186e3b19d985e2ce813010ff317d4126,side,1,2
1,1,90,10,10,91,16,19,55,37.11,6,3657,Female,186e3b19d985e2ce813010ff317d4126,same,2,2
4,1,0,54,55,37,77,73,64,32.45,6,9780,NA,c98b53e221f2d772a3af21b213f57ac2,side,3,4
4,1,1,56,55,55,36,37,55,18,7,5917,NA,c98b53e221f2d772a3af21b213f57ac2,side,4,2
4,1,2,16,19,55,25,28,46,12.73,6,3075,NA,c98b53e221f2d772a3af21b213f57ac2,side,2,1
4,1,3,36,37,55,4,10,37,32.45,8,7588,NA,c98b53e221f2d772a3af21b213f57ac2,side,2,1
4,1,4,19,19,82,86,82,55,68.54,1,5126,NA,c98b53e221f2d772a3af21b213f57ac2,side,2,4
4,1,5,60,55,91,88,82,73,32.45,3,4752,NA,c98b53e221f2d772a3af21b213f57ac2,same,4,4
4,1,6,38,37,73,65,64,46,38.18,3,4718,NA,c98b53e221f2d772a3af21b213f57ac2,cross,2,3
4,1,7,41,46,10,20,19,91,85.38,1,3120,NA,c98b53e221f2d772a3af21b213f57ac2,side,1,2
4,1,8,63,64,28,2,10,19,54.74,3,4450,NA,c98b53e221f2d772a3af21b213f57ac2,side,3,1
4,1,9,39,37,82,50,46,91,12.73,4,4958,NA,c98b53e221f2d772a3af21b213f57ac2,same,2,2
4,1,10,38,37,73,90,82,91,48.47,2,4924,NA,c98b53e221f2d772a3af21b213f57ac2,side,2,4
4,1,11,86,82,55,33,37,28,52.48,3,2717,NA,c98b53e221f2d772a3af21b213f57ac2,cross,4,1
4,1,12,95,91,46,53,55,28,40.25,2,2246,NA,c98b53e221f2d772a3af21b213f57ac2,same,3,3
4,1,13,7,10,64,29,28,82,25.46,3,5209,NA,c98b53e221f2d772a3af21b213f57ac2,same,2,2
4,1,14,73,73,28,50,46,91,68.54,1,4522,NA,c98b53e221f2d772a3af21b213f57ac2,cross,3,2
4,1,15,16,19,55,47,46,64,28.46,6,2643,NA,c98b53e221f2d772a3af21b213f57ac2,same,2,2
4,1,16,31,37,10,69,64,82,76.9,3,5583,NA,c98b53e221f2d772a3af21b213f57ac2,cross,1,4
4,1,17,58,55,73,99,91,82,37.11,1,4163,NA,c98b53e221f2d772a3af21b213f57ac2,same,4,4
4,1,18,1,10,10,68,64,73,82.98,1,4868,NA,c98b53e221f2d772a3af21b213f57ac2,cross,1,4
4,1,19,56,55,55,99,91,82,45,3,3187,NA,c98b53e221f2d772a3af21b213f57ac2,same,4,4
4,1,20,75,73,46,71,73,10,36,5,5961,NA,c98b53e221f2d772a3af21b213f57ac2,same,3,3
4,1,21,99,91,82,100,91,91,9,6,2634,NA,c98b53e221f2d772a3af21b213f57ac2,same,4,4
4,1,22,75,73,46,1,10,10,72.56,2,4019,NA,c98b53e221f2d772a3af21b213f57ac2,side,3,1
4,1,23,5,10,46,38,37,73,38.18,3,5762,NA,c98b53e221f2d772a3af21b213f57ac2,side,1,2
4,1,24,89,82,82,59,55,82,27,5,3282,NA,c98b53e221f2d772a3af21b213f57ac2,same,4,4
4,1,25,71,73,10,34,37,37,45,2,7881,NA,c98b53e221f2d772a3af21b213f57ac2,side,3,1
4,1,26,96,91,55,53,55,28,45,1,6536,NA,c98b53e221f2d772a3af21b213f57ac2,side,4,3
4,1,27,6,10,55,10,10,91,36,5,3777,NA,c98b53e221f2d772a3af21b213f57ac2,same,2,2
4,1,28,54,55,37,94,91,37,36,5,3256,NA,c98b53e221f2d772a3af21b213f57ac2,same,3,3
4,1,29,84,82,37,60,55,91,60.37,2,5160,NA,c98b53e221f2d772a3af21b213f57ac2,side,3,4
4,1,30,93,91,28,20,19,91,95.67,1,4069,NA,c98b53e221f2d772a3af21b213f57ac2,cross,3,2
4,1,31,1,10,10,91,91,10,81,4,3396,NA,c98b53e221f2d772a3af21b213f57ac2,side,1,3
4,1,32,72,73,19,30,28,91,84.91,1,7810,NA,c98b53e221f2d772a3af21b213f57ac2,cross,3,2
4,1,33,40,37,91,87,82,64,52.48,3,7928,NA,c98b53e221f2d772a3af21b213f57ac2,side,2,4
4,1,34,77,73,64,74,73,37,27,5,3296,NA,c98b53e221f2d772a3af21b213f57ac2,side,4,3
4,1,35,16,19,55,38,37,73,25.46,3,4175,NA,c98b53e221f2d772a3af21b213f57ac2,same,2,2
4,1,36,72,73,19,98,91,73,56.92,3,3535,NA,c98b53e221f2d772a3af21b213f57ac2,side,3,4
4,1,37,20,19,91,26,28,55,37.11,4,4111,NA,c98b53e221f2d772a3af21b213f57ac2,same,2,2
4,1,38,48,46,73,40,37,91,20.12,5,2452,NA,c98b53e221f2d772a3af21b213f57ac2,same,2,2
4,1,39,8,10,73,23,28,28,48.47,3,3165,NA,c98b53e221f2d772a3af21b213f57ac2,side,2,1
4,1,40,95,91,46,84,82,37,12.73,7,4243,NA,c98b53e221f2d772a3af21b213f57ac2,same,3,3
4,1,41,9,10,82,46,46,55,45,3,5003,NA,c98b53e221f2d772a3af21b213f57ac2,same,2,2
4,1,42,36,37,55,20,19,91,40.25,3,3882,NA,c98b53e221f2d772a3af21b213f57ac2,same,2,2
4,1,43,42,46,19,34,37,37,20.12,7,6129,NA,c98b53e221f2d772a3af21b213f57ac2,same,1,1
4,1,44,58,55,73,16,19,55,40.25,5,2428,NA,c98b53e221f2d772a3af21b213f57ac2,side,4,2
4,1,45,43,46,28,66,64,55,32.45,6,6671,NA,c98b53e221f2d772a3af21b213f57ac2,cross,1,4
4,1,46,17,19,64,92,91,19,84.91,2,5366,NA,c98b53e221f2d772a3af21b213f57ac2,cross,2,3
4,1,47,82,82,19,93,91,28,12.73,7,4936,NA,c98b53e221f2d772a3af21b213f57ac2,same,3,3
4,1,48,2,10,19,9,10,82,63,4,3815,NA,c98b53e221f2d772a3af21b213f57ac2,side,1,2
4,1,49,10,10,91,37,37,64,38.18,4,5215,NA,c98b53e221f2d772a3af21b213f57ac2,same,2,2
4,1,50,4,10,37,15,19,46,12.73,8,4140,NA,c98b53e221f2d772a3af21b213f57ac2,same,1,1
4,1,51,26,28,55,72,73,19,57.63,1,4655,NA,c98b53e221f2d772a3af21b213f57ac2,cross,2,3
4,1,52,82,82,19,55,55,46,38.18,5,2174,NA,c98b53e221f2d772a3af21b213f57ac2,same,3,3
4,1,53,2,10,19,71,73,10,63.64,3,5274,NA,c98b53e221f2d772a3af21b213f57ac2,side,1,3
4,1,54,66,64,55,41,46,10,48.47,3,5165,NA,c98b53e221f2d772a3af21b213f57ac2,cross,4,1
4,1,55,65,64,46,82,82,19,32.45,6,3860,NA,c98b53e221f2d772a3af21b213f57ac2,same,3,3
4,1,56,32,37,19,47,46,64,45.89,4,12836,NA,c98b53e221f2d772a3af21b213f57ac2,side,1,2
4,1,57,78,73,73,77,73,64,9,8,3363,NA,c98b53e221f2d772a3af21b213f57ac2,same,4,4
4,1,58,50,46,91,90,82,91,36,6,8013,NA,c98b53e221f2d772a3af21b213f57ac2,side,2,4
4,1,59,1,10,10,88,82,73,95.67,1,5365,NA,c98b53e221f2d772a3af21b213f57ac2,cross,1,4
4,1,60,15,19,46,41,46,10,45,3,2263,NA,c98b53e221f2d772a3af21b213f57ac2,same,1,1
4,1,61,63,64,28,75,73,46,20.12,6,5259,NA,c98b53e221f2d772a3af21b213f57ac2,same,3,3
4,1,62,70,64,91,12,19,19,84.91,1,4685,NA,c98b53e221f2d772a3af21b213f57ac2,cross,4,1
4,1,63,84,82,37,9,10,82,84.91,3,5921,NA,c98b53e221f2d772a3af21b213f57ac2,cross,3,2
4,1,64,81,82,10,90,82,91,81,4,2243,NA,c98b53e221f2d772a3af21b213f57ac2,side,3,4
4,1,65,13,19,28,98,91,73,84.91,1,7311,NA,c98b53e221f2d772a3af21b213f57ac2,cross,1,4
4,1,66,80,73,91,43,46,28,68.54,3,4250,NA,c98b53e221f2d772a3af21b213f57ac2,cross,4,1
4,1,67,40,37,91,4,10,37,60.37,2,5573,NA,c98b53e221f2d772a3af21b213f57ac2,side,2,1
4,1,68,83,82,28,90,82,91,63,4,9413,NA,c98b53e221f2d772a3af21b213f57ac2,side,3,4
4,1,69,22,28,19,35,37,46,28.46,6,3147,NA,c98b53e221f2d772a3af21b213f57ac2,same,1,1
4,1,70,4,10,37,45,46,46,37.11,6,2733,NA,c98b53e221f2d772a3af21b213f57ac2,same,1,1
4,1,71,17,19,64,96,91,55,72.56,3,4880,NA,c98b53e221f2d772a3af21b213f57ac2,side,2,4
4,1,72,25,28,46,93,91,28,65.52,2,2236,NA,c98b53e221f2d772a3af21b213f57ac2,side,1,3
4,1,73,27,28,64,52,55,19,52.48,2,3186,NA,c98b53e221f2d772a3af21b213f57ac2,cross,2,3
4,1,0,72,73,19,33,37,28,37.11,3,3564,NA,d609df47038cd887fe0b7036fc222421,side,3,1
4,1,1,61,64,10,43,46,28,25.46,2,2655,NA,d609df47038cd887fe0b7036fc222421,side,3,1
4,1,2,88,82,73,83,82,28,45,4,7177,NA,d609df47038cd887fe0b7036fc222421,side,4,3
4,1,3,81,82,10,66,64,55,48.47,2,2937,NA,d609df47038cd887fe0b7036fc222421,side,3,4
1,1,0,51,55,10,62,64,19,12.73,8,3522,Male,01c0ff08af370b43faf00de4b90e3ea7,same,3,3
1,1,1,79,73,82,73,73,28,54,8,2912,Male,01c0ff08af370b43faf00de4b90e3ea7,side,4,3
1,1,2,75,73,46,74,73,37,9,5,4217,Male,01c0ff08af370b43faf00de4b90e3ea7,same,3,3
1,1,3,6,10,55,34,37,37,32.45,7,8235,Male,01c0ff08af370b43faf00de4b90e3ea7,side,2,1
1,1,4,1,10,10,75,73,46,72.56,7,1239,Male,01c0ff08af370b43faf00de4b90e3ea7,side,1,3
1,1,5,25,28,46,33,37,28,20.12,6,3083,Male,01c0ff08af370b43faf00de4b90e3ea7,same,1,1
1,1,6,48,46,73,20,19,91,32.45,7,2203,Male,01c0ff08af370b43faf00de4b90e3ea7,same,2,2
1,1,7,80,73,91,96,91,55,40.25,5,2323,Male,01c0ff08af370b43faf00de4b90e3ea7,same,4,4
1,1,8,20,19,91,57,55,64,45,7,1980,Male,01c0ff08af370b43faf00de4b90e3ea7,side,2,4
1,1,9,40,37,91,26,28,55,37.11,7,1794,Male,01c0ff08af370b43faf00de4b90e3ea7,same,2,2
1,1,10,4,10,37,42,46,19,40.25,5,3440,Male,01c0ff08af370b43faf00de4b90e3ea7,same,1,1
1,1,11,7,10,64,77,73,64,63,7,3343,Male,01c0ff08af370b43faf00de4b90e3ea7,side,2,4
1,1,12,61,64,10,19,19,82,84.91,8,2565,Male,01c0ff08af370b43faf00de4b90e3ea7,cross,3,2
1,1,13,73,73,28,94,91,37,20.12,8,4422,Male,01c0ff08af370b43faf00de4b90e3ea7,same,3,3
1,1,14,34,37,37,18,19,73,40.25,6,1817,Male,01c0ff08af370b43faf00de4b90e3ea7,side,1,2
1,1,15,24,28,37,1,10,10,32.45,4,1627,Male,01c0ff08af370b43faf00de4b90e3ea7,same,1,1
1,1,16,66,64,55,3,10,28,60.37,6,1822,Male,01c0ff08af370b43faf00de4b90e3ea7,cross,4,1
1,1,17,64,64,37,30,28,91,64.9,7,3850,Male,01c0ff08af370b43faf00de4b90e3ea7,cross,3,2
1,1,18,94,91,37,31,37,10,60.37,4,1859,Male,01c0ff08af370b43faf00de4b90e3ea7,side,3,1
1,1,19,92,91,19,80,73,91,74.22,5,6252,Male,01c0ff08af370b43faf00de4b90e3ea7,side,3,4
1,1,20,35,37,46,2,10,19,38.18,4,3330,Male,01c0ff08af370b43faf00de4b90e3ea7,same,1,1
1,1,21,85,82,46,42,46,19,45,6,4543,Male,01c0ff08af370b43faf00de4b90e3ea7,side,3,1
1,1,22,85,82,46,65,64,46,18,6,3061,Male,01c0ff08af370b43faf00de4b90e3ea7,same,3,3
1,1,23,41,46,10,31,37,10,9,7,4244,Male,01c0ff08af370b43faf00de4b90e3ea7,same,1,1
1,1,24,98,91,73,66,64,55,32.45,8,1097,Male,01c0ff08af370b43faf00de4b90e3ea7,same,4,4
1,1,25,51,55,10,2,10,19,45.89,7,1148,Male,01c0ff08af370b43faf00de4b90e3ea7,side,3,1
1,1,26,44,46,37,63,64,28,20.12,7,1602,Male,01c0ff08af370b43faf00de4b90e3ea7,side,1,3
1,1,27,75,73,46,9,10,82,72.56,6,1483,Male,01c0ff08af370b43faf00de4b90e3ea7,cross,3,2
1,1,28,87,82,64,11,19,10,82.98,3,1852,Male,01c0ff08af370b43faf00de4b90e3ea7,cross,4,1
1,1,29,56,55,55,38,37,73,25.46,5,1729,Male,01c0ff08af370b43faf00de4b90e3ea7,side,4,2
1,1,30,76,73,55,80,73,91,36,6,1788,Male,01c0ff08af370b43faf00de4b90e3ea7,same,4,4
1,1,31,33,37,28,71,73,10,40.25,6,2050,Male,01c0ff08af370b43faf00de4b90e3ea7,side,1,3
1,1,32,60,55,91,23,28,28,68.54,4,729,Male,01c0ff08af370b43faf00de4b90e3ea7,cross,4,1
1,1,33,82,82,19,5,10,46,76.9,3,3366,Male,01c0ff08af370b43faf00de4b90e3ea7,side,3,1
1,1,34,93,91,28,19,19,82,90,5,1588,Male,01c0ff08af370b43faf00de4b90e3ea7,cross,3,2
1,1,35,27,28,64,41,46,10,56.92,4,1486,Male,01c0ff08af370b43faf00de4b90e3ea7,side,2,1
1,1,36,2,10,19,33,37,28,28.46,4,1437,Male,01c0ff08af370b43faf00de4b90e3ea7,same,1,1
1,1,37,71,73,10,86,82,55,45.89,4,2000,Male,01c0ff08af370b43faf00de4b90e3ea7,side,3,4
1,1,38,86,82,55,6,10,55,72,3,1427,Male,01c0ff08af370b43faf00de4b90e3ea7,side,4,2
1,1,39,23,28,28,92,91,19,63.64,3,703,Male,01c0ff08af370b43faf00de4b90e3ea7,side,1,3
1,1,40,25,28,46,78,73,73,52.48,4,941,Male,01c0ff08af370b43faf00de4b90e3ea7,cross,1,4
1,1,41,10,10,91,21,28,10,82.98,4,2315,Male,01c0ff08af370b43faf00de4b90e3ea7,side,2,1
1,1,42,59,55,82,56,55,55,27,6,2178,Male,01c0ff08af370b43faf00de4b90e3ea7,same,4,4
1,1,43,48,46,73,9,10,82,37.11,6,923,Male,01c0ff08af370b43faf00de4b90e3ea7,same,2,2
1,1,44,68,64,73,16,19,55,48.47,7,304,Male,01c0ff08af370b43faf00de4b90e3ea7,side,4,2
1,1,45,91,91,10,95,91,46,36,4,957,Male,01c0ff08af370b43faf00de4b90e3ea7,same,3,3
1,1,46,35,37,46,18,19,73,32.45,4,643,Male,01c0ff08af370b43faf00de4b90e3ea7,side,1,2
1,1,47,4,10,37,43,46,28,37.11,7,864,Male,01c0ff08af370b43faf00de4b90e3ea7,same,1,1
1,1,48,79,73,82,94,91,37,48.47,4,2006,Male,01c0ff08af370b43faf00de4b90e3ea7,side,4,3
1,1,49,54,55,37,20,19,91,64.9,3,902,Male,01c0ff08af370b43faf00de4b90e3ea7,cross,3,2
1,1,50,31,37,10,17,19,64,56.92,4,859,Male,01c0ff08af370b43faf00de4b90e3ea7,side,1,2
1,1,51,87,82,64,53,55,28,45,3,993,Male,01c0ff08af370b43faf00de4b90e3ea7,side,4,3
1,1,52,88,82,73,67,64,64,20.12,4,2191,Male,01c0ff08af370b43faf00de4b90e3ea7,same,4,4
1,1,53,42,46,19,76,73,55,45,7,677,Male,01c0ff08af370b43faf00de4b90e3ea7,cross,1,4
1,1,54,100,91,91,74,73,37,56.92,1,2260,Male,01c0ff08af370b43faf00de4b90e3ea7,side,4,3
1,1,55,59,55,82,7,10,64,48.47,6,3496,Male,01c0ff08af370b43faf00de4b90e3ea7,side,4,2
1,1,56,30,28,91,89,82,82,54.74,1,1583,Male,01c0ff08af370b43faf00de4b90e3ea7,side,2,4
1,1,57,2,10,19,75,73,46,68.54,3,1926,Male,01c0ff08af370b43faf00de4b90e3ea7,side,1,3
1,1,58,67,64,64,78,73,73,12.73,3,666,Male,01c0ff08af370b43faf00de4b90e3ea7,same,4,4
1,1,59,89,82,82,69,64,82,18,8,1120,Male,01c0ff08af370b43faf00de4b90e3ea7,same,4,4
1,1,60,79,73,82,26,28,55,52.48,8,17468,Male,01c0ff08af370b43faf00de4b90e3ea7,side,4,2
1,1,61,89,82,82,21,28,10,90,2,1749,Male,01c0ff08af370b43faf00de4b90e3ea7,cross,4,1
1,1,62,27,28,64,19,19,82,20.12,7,1958,Male,01c0ff08af370b43faf00de4b90e3ea7,same,2,2
1,1,63,3,10,28,7,10,64,36,5,1709,Male,01c0ff08af370b43faf00de4b90e3ea7,side,1,2
1,1,64,86,82,55,1,10,10,84.91,4,1790,Male,01c0ff08af370b43faf00de4b90e3ea7,cross,4,1
1,1,65,47,46,64,62,64,19,48.47,7,3174,Male,01c0ff08af370b43faf00de4b90e3ea7,cross,2,3
1,1,66,30,28,91,78,73,73,48.47,3,2552,Male,01c0ff08af370b43faf00de4b90e3ea7,side,2,4
1,1,67,35,37,46,22,28,19,28.46,6,1420,Male,01c0ff08af370b43faf00de4b90e3ea7,same,1,1
1,1,68,65,64,46,97,91,64,32.45,2,860,Male,01c0ff08af370b43faf00de4b90e3ea7,side,3,4
1,1,69,60,55,91,66,64,55,37.11,7,1202,Male,01c0ff08af370b43faf00de4b90e3ea7,same,4,4
1,1,70,100,91,91,76,73,55,40.25,8,530,Male,01c0ff08af370b43faf00de4b90e3ea7,same,4,4
1,1,71,17,19,64,18,19,73,9,7,565,Male,01c0ff08af370b43faf00de4b90e3ea7,same,2,2
1,1,72,42,46,19,89,82,82,72.56,2,2301,Male,01c0ff08af370b43faf00de4b90e3ea7,cross,1,4
1,1,73,51,55,10,82,82,19,28.46,1,1023,Male,01c0ff08af370b43faf00de4b90e3ea7,same,3,3
1,1,74,38,37,73,74,73,37,50.91,3,825,Male,01c0ff08af370b43faf00de4b90e3ea7,cross,2,3
1,1,75,94,91,37,53,55,28,37.11,3,980,Male,01c0ff08af370b43faf00de4b90e3ea7,same,3,3
1,1,76,89,82,82,70,64,91,20.12,2,1039,Male,01c0ff08af370b43faf00de4b90e3ea7,same,4,4
1,1,77,15,19,46,45,46,46,27,6,1708,Male,01c0ff08af370b43faf00de4b90e3ea7,same,1,1
1,1,78,89,82,82,51,55,10,76.9,7,850,Male,01c0ff08af370b43faf00de4b90e3ea7,side,4,3
1,1,79,74,73,37,87,82,64,28.46,7,663,Male,01c0ff08af370b43faf00de4b90e3ea7,side,3,4
1,1,80,63,64,28,24,28,37,37.11,7,1274,Male,01c0ff08af370b43faf00de4b90e3ea7,side,3,1
1,1,81,36,37,55,48,46,73,20.12,8,780,Male,01c0ff08af370b43faf00de4b90e3ea7,same,2,2
1,1,82,30,28,91,9,10,82,20.12,5,1973,Male,01c0ff08af370b43faf00de4b90e3ea7,same,2,2
1,1,83,49,46,82,8,10,73,37.11,4,1823,Male,01c0ff08af370b43faf00de4b90e3ea7,same,2,2
1,1,84,28,28,73,92,91,19,82.98,6,1457,Male,01c0ff08af370b43faf00de4b90e3ea7,cross,2,3
1,1,85,33,37,28,26,28,55,28.46,4,865,Male,01c0ff08af370b43faf00de4b90e3ea7,side,1,2
1,1,86,46,46,55,85,82,46,37.11,6,1079,Male,01c0ff08af370b43faf00de4b90e3ea7,cross,2,3
1,1,87,40,37,91,42,46,19,72.56,4,874,Male,01c0ff08af370b43faf00de4b90e3ea7,side,2,1
1,1,88,18,19,73,11,19,10,63,7,1143,Male,01c0ff08af370b43faf00de4b90e3ea7,side,2,1
1,1,89,52,55,19,92,91,19,36,8,1193,Male,01c0ff08af370b43faf00de4b90e3ea7,same,3,3
1,1,90,54,55,37,71,73,10,32.45,4,1073,Male,01c0ff08af370b43faf00de4b90e3ea7,same,3,3
1,1,91,10,10,91,99,91,82,81.5,1,962,Male,01c0ff08af370b43faf00de4b90e3ea7,side,2,4
1,1,92,56,55,55,5,10,46,45.89,4,1022,Male,01c0ff08af370b43faf00de4b90e3ea7,cross,4,1
1,1,93,71,73,10,75,73,46,36,7,745,Male,01c0ff08af370b43faf00de4b90e3ea7,same,3,3
1,1,94,99,91,82,15,19,46,80.5,2,739,Male,01c0ff08af370b43faf00de4b90e3ea7,cross,4,1
1,1,95,9,10,82,17,19,64,20.12,2,703,Male,01c0ff08af370b43faf00de4b90e3ea7,same,2,2
1,1,96,36,37,55,10,10,91,45,6,1491,Male,01c0ff08af370b43faf00de4b90e3ea7,same,2,2
1,1,97,2,10,19,44,46,37,40.25,7,943,Male,01c0ff08af370b43faf00de4b90e3ea7,same,1,1
1,1,98,16,19,55,93,91,28,76.9,4,241,Male,01c0ff08af370b43faf00de4b90e3ea7,cross,2,3
1,1,99,63,64,28,60,55,91,63.64,4,1390,Male,01c0ff08af370b43faf00de4b90e3ea7,side,3,4
4,1,0,86,82,55,51,55,10,52.48,2,7464,Male,01c0ff08af370b43faf00de4b90e3ea7,side,4,3
4,1,1,68,64,73,77,73,64,12.73,8,2245,Male,01c0ff08af370b43faf00de4b90e3ea7,same,4,4
4,1,2,71,73,10,18,19,73,82.98,1,10546,Male,01c0ff08af370b43faf00de4b90e3ea7,cross,3,2
4,1,3,90,82,91,72,73,19,72.56,3,2926,Male,01c0ff08af370b43faf00de4b90e3ea7,side,4,3
4,1,4,77,73,64,2,10,19,77.42,1,2642,Male,01c0ff08af370b43faf00de4b90e3ea7,cross,4,1
4,1,5,15,19,46,82,82,19,68.54,2,3061,Male,01c0ff08af370b43faf00de4b90e3ea7,side,1,3
4,1,6,76,73,55,60,55,91,40.25,6,4141,Male,01c0ff08af370b43faf00de4b90e3ea7,same,4,4
4,1,7,89,82,82,13,19,28,82.98,1,1718,Male,01c0ff08af370b43faf00de4b90e3ea7,cross,4,1
4,1,8,1,10,10,70,64,91,97.35,1,1518,Male,01c0ff08af370b43faf00de4b90e3ea7,cross,1,4
4,1,9,42,46,19,1,10,10,37.11,3,3509,Male,01c0ff08af370b43faf00de4b90e3ea7,same,1,1
4,1,10,96,91,55,76,73,55,18,8,4389,Male,01c0ff08af370b43faf00de4b90e3ea7,same,4,4
4,1,11,16,19,55,50,46,91,45,6,2991,Male,01c0ff08af370b43faf00de4b90e3ea7,same,2,2
4,1,12,90,82,91,76,73,55,37.11,7,2342,Male,01c0ff08af370b43faf00de4b90e3ea7,same,4,4
4,1,13,42,46,19,44,46,37,18,7,1614,Male,01c0ff08af370b43faf00de4b90e3ea7,same,1,1
4,1,14,50,46,91,47,46,64,27,7,1563,Male,01c0ff08af370b43faf00de4b90e3ea7,same,2,2
4,1,15,81,82,10,76,73,55,45.89,7,3487,Male,01c0ff08af370b43faf00de4b90e3ea7,side,3,4
4,1,16,46,46,55,18,19,73,32.45,6,2046,Male,01c0ff08af370b43faf00de4b90e3ea7,same,2,2
4,1,17,100,91,91,72,73,19,74.22,3,2929,Male,01c0ff08af370b43faf00de4b90e3ea7,side,4,3
4,1,18,2,10,19,20,19,91,72.56,3,2148,Male,01c0ff08af370b43faf00de4b90e3ea7,side,1,2
4,1,19,62,64,19,24,28,37,40.25,5,3120,Male,01c0ff08af370b43faf00de4b90e3ea7,side,3,1
4,1,20,57,55,64,85,82,46,32.45,3,4881,Male,01c0ff08af370b43faf00de4b90e3ea7,side,4,3
4,1,21,44,46,37,95,91,46,45.89,4,3671,Male,01c0ff08af370b43faf00de4b90e3ea7,side,1,3
4,1,22,97,91,64,77,73,64,18,8,1709,Male,01c0ff08af370b43faf00de4b90e3ea7,same,4,4
4,1,23,42,46,19,4,10,37,40.25,6,2245,Male,01c0ff08af370b43faf00de4b90e3ea7,same,1,1
4,1,24,36,37,55,85,82,46,45.89,5,2230,Male,01c0ff08af370b43faf00de4b90e3ea7,cross,2,3
4,1,25,18,19,73,79,73,82,54.74,5,2304,Male,01c0ff08af370b43faf00de4b90e3ea7,side,2,4
4,1,26,55,55,46,72,73,19,32.45,7,3051,Male,01c0ff08af370b43faf00de4b90e3ea7,same,3,3
4,1,27,43,46,28,40,37,91,63.64,5,3578,Male,01c0ff08af370b43faf00de4b90e3ea7,side,1,2
4,1,28,5,10,46,12,19,19,28.46,7,1905,Male,01c0ff08af370b43faf00de4b90e3ea7,same,1,1
4,1,29,72,73,19,85,82,46,28.46,7,1869,Male,01c0ff08af370b43faf00de4b90e3ea7,same,3,3
4,1,30,50,46,91,35,37,46,45.89,6,1417,Male,01c0ff08af370b43faf00de4b90e3ea7,side,2,1
4,1,31,3,10,28,13,19,28,9,8,1364,Male,01c0ff08af370b43faf00de4b90e3ea7,same,1,1
4,1,32,31,37,10,45,46,46,37.11,7,3267,Male,01c0ff08af370b43faf00de4b90e3ea7,same,1,1
4,1,33,61,64,10,92,91,19,28.46,6,1675,Male,01c0ff08af370b43faf00de4b90e3ea7,same,3,3
4,1,34,77,73,64,25,28,46,48.47,5,2745,Male,01c0ff08af370b43faf00de4b90e3ea7,cross,4,1
4,1,35,78,73,73,51,55,10,65.52,5,3585,Male,01c0ff08af370b43faf00de4b90e3ea7,side,4,3
4,1,36,85,82,46,91,91,10,37.11,6,2194,Male,01c0ff08af370b43faf00de4b90e3ea7,same,3,3
4,1,37,6,10,55,77,73,64,63.64,5,2930,Male,01c0ff08af370b43faf00de4b90e3ea7,side,2,4
4,1,38,25,28,46,6,10,55,20.12,8,1615,Male,01c0ff08af370b43faf00de4b90e3ea7,side,1,2
4,1,39,28,28,73,45,46,46,32.45,7,1291,Male,01c0ff08af370b43faf00de4b90e3ea7,side,2,1
4,1,40,29,28,82,27,28,64,18,8,1457,Male,01c0ff08af370b43faf00de4b90e3ea7,same,2,2
4,1,41,21,28,10,87,82,64,76.37,1,1907,Male,01c0ff08af370b43faf00de4b90e3ea7,cross,1,4
4,1,42,76,73,55,83,82,28,28.46,7,1994,Male,01c0ff08af370b43faf00de4b90e3ea7,side,4,3
4,1,43,50,46,91,89,82,82,37.11,6,1999,Male,01c0ff08af370b43faf00de4b90e3ea7,side,2,4
4,1,44,68,64,73,23,28,28,57.63,4,3151,Male,01c0ff08af370b43faf00de4b90e3ea7,cross,4,1
4,1,45,34,37,37,21,28,10,28.46,6,2478,Male,01c0ff08af370b43faf00de4b90e3ea7,same,1,1
4,1,46,75,73,46,6,10,55,63.64,4,2499,Male,01c0ff08af370b43faf00de4b90e3ea7,cross,3,2
4,1,47,7,10,64,24,28,37,32.45,7,2727,Male,01c0ff08af370b43faf00de4b90e3ea7,side,2,1
4,1,48,61,64,10,29,28,82,80.5,1,3837,Male,01c0ff08af370b43faf00de4b90e3ea7,cross,3,2
4,1,49,88,82,73,10,10,91,74.22,3,2293,Male,01c0ff08af370b43faf00de4b90e3ea7,side,4,2
4,1,50,13,19,28,34,37,37,20.12,6,2339,Male,01c0ff08af370b43faf00de4b90e3ea7,same,1,1
4,1,51,16,19,55,100,91,91,80.5,1,1041,Male,01c0ff08af370b43faf00de4b90e3ea7,side,2,4
4,1,52,99,91,82,40,37,91,54.74,5,2142,Male,01c0ff08af370b43faf00de4b90e3ea7,side,4,2
4,1,53,88,82,73,97,91,64,12.73,8,1540,Male,01c0ff08af370b43faf00de4b90e3ea7,same,4,4
4,1,54,25,28,46,87,82,64,56.92,3,3030,Male,01c0ff08af370b43faf00de4b90e3ea7,cross,1,4
4,1,55,39,37,82,84,82,37,63.64,2,2907,Male,01c0ff08af370b43faf00de4b90e3ea7,cross,2,3
4,1,56,96,91,55,25,28,46,63.64,6,1740,Male,01c0ff08af370b43faf00de4b90e3ea7,cross,4,1
4,1,57,99,91,82,66,64,55,38.18,5,1704,Male,01c0ff08af370b43faf00de4b90e3ea7,same,4,4
4,1,58,92,91,19,12,19,19,72,6,2866,Male,01c0ff08af370b43faf00de4b90e3ea7,side,3,1
4,1,59,42,46,19,15,19,46,38.18,6,2612,Male,01c0ff08af370b43faf00de4b90e3ea7,same,1,1
4,1,60,3,10,28,38,37,73,52.48,4,1759,Male,01c0ff08af370b43faf00de4b90e3ea7,side,1,2
4,1,61,93,91,28,31,37,10,56.92,4,2297,Male,01c0ff08af370b43faf00de4b90e3ea7,side,3,1
4,1,62,48,46,73,30,28,91,25.46,7,2574,Male,01c0ff08af370b43faf00de4b90e3ea7,same,2,2
4,1,63,94,91,37,64,64,37,27,6,1397,Male,01c0ff08af370b43faf00de4b90e3ea7,same,3,3
4,1,64,82,82,19,67,64,64,48.47,5,1600,Male,01c0ff08af370b43faf00de4b90e3ea7,side,3,4
4,1,65,53,55,28,50,46,91,63.64,5,1994,Male,01c0ff08af370b43faf00de4b90e3ea7,cross,3,2
4,1,66,43,46,28,95,91,46,48.47,4,1828,Male,01c0ff08af370b43faf00de4b90e3ea7,side,1,3
4,1,67,67,64,64,48,46,73,20.12,7,1431,Male,01c0ff08af370b43faf00de4b90e3ea7,side,4,2
4,1,68,18,19,73,7,10,64,12.73,8,1036,Male,01c0ff08af370b43faf00de4b90e3ea7,same,2,2
4,1,69,64,64,37,49,46,82,48.47,7,1127,Male,01c0ff08af370b43faf00de4b90e3ea7,cross,3,2
4,1,70,10,10,91,50,46,91,36,5,1252,Male,01c0ff08af370b43faf00de4b90e3ea7,same,2,2
4,1,71,67,64,64,50,46,91,32.45,7,1660,Male,01c0ff08af370b43faf00de4b90e3ea7,side,4,2
4,1,72,19,19,82,46,46,55,38.18,6,1524,Male,01c0ff08af370b43faf00de4b90e3ea7,same,2,2
4,1,73,13,19,28,45,46,46,32.45,6,1391,Male,01c0ff08af370b43faf00de4b90e3ea7,same,1,1
4,1,74,53,55,28,92,91,19,37.11,3,2276,Male,01c0ff08af370b43faf00de4b90e3ea7,same,3,3
4,1,75,39,37,82,33,37,28,54,6,1443,Male,01c0ff08af370b43faf00de4b90e3ea7,side,2,1
4,1,76,81,82,10,52,55,19,28.46,6,1633,Male,01c0ff08af370b43faf00de4b90e3ea7,same,3,3
4,1,77,8,10,73,56,55,55,48.47,6,1835,Male,01c0ff08af370b43faf00de4b90e3ea7,side,2,4
4,1,78,48,46,73,17,19,64,28.46,6,1449,Male,01c0ff08af370b43faf00de4b90e3ea7,same,2,2
4,1,79,79,73,82,53,55,28,56.92,6,1868,Male,01c0ff08af370b43faf00de4b90e3ea7,side,4,3
4,1,80,9,10,82,71,73,10,95.67,1,3040,Male,01c0ff08af370b43faf00de4b90e3ea7,cross,2,3
4,1,81,11,19,10,29,28,82,72.56,3,2066,Male,01c0ff08af370b43faf00de4b90e3ea7,side,1,2
4,1,82,92,91,19,54,55,37,40.25,3,1927,Male,01c0ff08af370b43faf00de4b90e3ea7,same,3,3
4,1,83,1,10,10,85,82,46,80.5,1,1826,Male,01c0ff08af370b43faf00de4b90e3ea7,side,1,3
4,1,84,48,46,73,16,19,55,32.45,4,1786,Male,01c0ff08af370b43faf00de4b90e3ea7,same,2,2
4,1,85,62,64,19,42,46,19,18,8,1490,Male,01c0ff08af370b43faf00de4b90e3ea7,side,3,1
4,1,86,25,28,46,57,55,64,32.45,7,4022,Male,01c0ff08af370b43faf00de4b90e3ea7,cross,1,4
4,1,87,73,73,28,1,10,10,65.52,6,1811,Male,01c0ff08af370b43faf00de4b90e3ea7,side,3,1
4,1,88,99,91,82,98,91,73,9,8,1388,Male,01c0ff08af370b43faf00de4b90e3ea7,same,4,4
4,1,89,70,64,91,97,91,64,38.18,7,2368,Male,01c0ff08af370b43faf00de4b90e3ea7,same,4,4
4,1,90,88,82,73,41,46,10,72.56,6,2502,Male,01c0ff08af370b43faf00de4b90e3ea7,cross,4,1
4,1,91,88,82,73,54,55,37,45,6,1224,Male,01c0ff08af370b43faf00de4b90e3ea7,side,4,3
4,1,92,55,55,46,93,91,28,40.25,6,2516,Male,01c0ff08af370b43faf00de4b90e3ea7,same,3,3
4,1,93,6,10,55,22,28,19,40.25,5,1872,Male,01c0ff08af370b43faf00de4b90e3ea7,side,2,1
4,1,94,52,55,19,74,73,37,25.46,6,3081,Male,01c0ff08af370b43faf00de4b90e3ea7,same,3,3
4,1,95,83,82,28,50,46,91,72.56,3,1869,Male,01c0ff08af370b43faf00de4b90e3ea7,cross,3,2
4,1,96,34,37,37,82,82,19,48.47,4,1549,Male,01c0ff08af370b43faf00de4b90e3ea7,side,1,3
4,1,97,66,64,55,60,55,91,37.11,6,1948,Male,01c0ff08af370b43faf00de4b90e3ea7,same,4,4
4,1,98,93,91,28,28,28,73,77.42,2,2286,Male,01c0ff08af370b43faf00de4b90e3ea7,cross,3,2
4,1,99,66,64,55,38,37,73,32.45,6,1690,Male,01c0ff08af370b43faf00de4b90e3ea7,side,4,2
4,2,0,9,10,82,71,73,10,95.67,1,6086,Male,01c0ff08af370b43faf00de4b90e3ea7,cross,2,3
4,2,1,66,64,55,99,91,82,38.18,3,3165,Male,01c0ff08af370b43faf00de4b90e3ea7,same,4,4
4,2,2,53,55,28,50,46,91,63.64,3,1634,Male,01c0ff08af370b43faf00de4b90e3ea7,cross,3,2
4,2,3,66,64,55,38,37,73,32.45,6,1643,Male,01c0ff08af370b43faf00de4b90e3ea7,side,4,2
4,2,4,12,19,19,92,91,19,72,2,3806,Male,01c0ff08af370b43faf00de4b90e3ea7,side,1,3
4,2,5,93,91,28,31,37,10,56.92,3,2197,Male,01c0ff08af370b43faf00de4b90e3ea7,side,3,1
4,2,6,16,19,55,50,46,91,45,6,2086,Male,01c0ff08af370b43faf00de4b90e3ea7,same,2,2
4,2,7,88,82,73,10,10,91,74.22,4,2649,Male,01c0ff08af370b43faf00de4b90e3ea7,side,4,2
4,2,8,56,55,55,8,10,73,48.47,6,2018,Male,01c0ff08af370b43faf00de4b90e3ea7,side,4,2
4,2,9,67,64,64,50,46,91,32.45,6,2321,Male,01c0ff08af370b43faf00de4b90e3ea7,side,4,2
4,2,10,88,82,73,41,46,10,72.56,4,1988,Male,01c0ff08af370b43faf00de4b90e3ea7,cross,4,1
4,2,11,28,28,73,45,46,46,32.45,6,1929,Male,01c0ff08af370b43faf00de4b90e3ea7,side,2,1
4,2,12,42,46,19,62,64,19,18,7,1718,Male,01c0ff08af370b43faf00de4b90e3ea7,side,1,3
4,2,13,13,19,28,45,46,46,32.45,7,1266,Male,01c0ff08af370b43faf00de4b90e3ea7,same,1,1
4,2,14,43,46,28,95,91,46,48.47,6,1854,Male,01c0ff08af370b43faf00de4b90e3ea7,side,1,3
4,2,15,61,64,10,92,91,19,28.46,8,1517,Male,01c0ff08af370b43faf00de4b90e3ea7,same,3,3
4,2,16,23,28,28,68,64,73,57.63,6,1609,Male,01c0ff08af370b43faf00de4b90e3ea7,cross,1,4
4,2,17,57,55,64,25,28,46,32.45,6,1631,Male,01c0ff08af370b43faf00de4b90e3ea7,cross,4,1
4,2,18,77,73,64,97,91,64,18,8,1440,Male,01c0ff08af370b43faf00de4b90e3ea7,same,4,4
4,2,19,54,55,37,92,91,19,40.25,7,1685,Male,01c0ff08af370b43faf00de4b90e3ea7,same,3,3
4,2,20,48,46,73,30,28,91,25.46,7,1627,Male,01c0ff08af370b43faf00de4b90e3ea7,same,2,2
4,2,21,50,46,91,47,46,64,27,7,1134,Male,01c0ff08af370b43faf00de4b90e3ea7,same,2,2
4,2,22,76,73,55,81,82,10,45.89,6,1267,Male,01c0ff08af370b43faf00de4b90e3ea7,side,4,3
4,2,23,86,82,55,51,55,10,52.48,6,1260,Male,01c0ff08af370b43faf00de4b90e3ea7,side,4,3
4,2,24,93,91,28,28,28,73,77.42,5,1352,Male,01c0ff08af370b43faf00de4b90e3ea7,cross,3,2
4,2,25,21,28,10,34,37,37,28.46,6,1264,Male,01c0ff08af370b43faf00de4b90e3ea7,same,1,1
4,2,26,84,82,37,39,37,82,63.64,6,2976,Male,01c0ff08af370b43faf00de4b90e3ea7,cross,3,2
4,2,27,24,28,37,62,64,19,40.25,6,2629,Male,01c0ff08af370b43faf00de4b90e3ea7,side,1,3
4,2,28,55,55,46,93,91,28,40.25,6,1449,Male,01c0ff08af370b43faf00de4b90e3ea7,same,3,3
4,2,29,25,28,46,6,10,55,20.12,8,1707,Male,01c0ff08af370b43faf00de4b90e3ea7,side,1,2
4,2,30,78,73,73,51,55,10,65.52,6,2378,Male,01c0ff08af370b43faf00de4b90e3ea7,side,4,3
4,2,31,39,37,82,33,37,28,54,7,1764,Male,01c0ff08af370b43faf00de4b90e3ea7,side,2,1
4,2,32,75,73,46,6,10,55,63.64,5,1855,Male,01c0ff08af370b43faf00de4b90e3ea7,cross,3,2
4,2,33,100,91,91,72,73,19,74.22,5,1215,Male,01c0ff08af370b43faf00de4b90e3ea7,side,4,3
4,2,34,61,64,10,29,28,82,80.5,4,1769,Male,01c0ff08af370b43faf00de4b90e3ea7,cross,3,2
4,2,35,16,19,55,100,91,91,80.5,4,1136,Male,01c0ff08af370b43faf00de4b90e3ea7,side,2,4
4,2,36,11,19,10,29,28,82,72.56,4,1131,Male,01c0ff08af370b43faf00de4b90e3ea7,side,1,2
4,2,37,60,55,91,76,73,55,40.25,6,1342,Male,01c0ff08af370b43faf00de4b90e3ea7,same,4,4
4,2,38,15,19,46,82,82,19,68.54,6,977,Male,01c0ff08af370b43faf00de4b90e3ea7,side,1,3
4,2,39,50,46,91,89,82,82,37.11,6,2346,Male,01c0ff08af370b43faf00de4b90e3ea7,side,2,4
4,2,40,18,19,73,46,46,55,32.45,6,1126,Male,01c0ff08af370b43faf00de4b90e3ea7,same,2,2
4,2,41,67,64,64,48,46,73,20.12,7,1327,Male,01c0ff08af370b43faf00de4b90e3ea7,side,4,2
4,2,42,20,19,91,2,10,19,72.56,7,1258,Male,01c0ff08af370b43faf00de4b90e3ea7,side,2,1
4,2,43,34,37,37,82,82,19,48.47,6,1142,Male,01c0ff08af370b43faf00de4b90e3ea7,side,1,3
4,2,44,3,10,28,38,37,73,52.48,6,1365,Male,01c0ff08af370b43faf00de4b90e3ea7,side,1,2
4,2,45,18,19,73,71,73,10,82.98,6,840,Male,01c0ff08af370b43faf00de4b90e3ea7,cross,2,3
4,2,46,7,10,64,18,19,73,12.73,8,1404,Male,01c0ff08af370b43faf00de4b90e3ea7,same,2,2
4,2,47,49,46,82,64,64,37,48.47,6,1718,Male,01c0ff08af370b43faf00de4b90e3ea7,cross,2,3
4,2,48,85,82,46,36,37,55,45.89,6,1416,Male,01c0ff08af370b43faf00de4b90e3ea7,cross,3,2
4,2,49,27,28,64,29,28,82,18,8,1311,Male,01c0ff08af370b43faf00de4b90e3ea7,same,2,2
4,2,50,6,10,55,77,73,64,63.64,4,3166,Male,01c0ff08af370b43faf00de4b90e3ea7,side,2,4
4,2,51,76,73,55,83,82,28,28.46,7,1218,Male,01c0ff08af370b43faf00de4b90e3ea7,side,4,3
4,2,52,95,91,46,44,46,37,45.89,6,1136,Male,01c0ff08af370b43faf00de4b90e3ea7,side,3,1
4,2,53,73,73,28,1,10,10,65.52,5,1618,Male,01c0ff08af370b43faf00de4b90e3ea7,side,3,1
4,2,54,31,37,10,45,46,46,37.11,7,1116,Male,01c0ff08af370b43faf00de4b90e3ea7,same,1,1
4,2,55,70,64,91,1,10,10,97.35,5,1019,Male,01c0ff08af370b43faf00de4b90e3ea7,cross,4,1
4,2,56,6,10,55,22,28,19,40.25,6,1570,Male,01c0ff08af370b43faf00de4b90e3ea7,side,2,1
4,2,57,1,10,10,42,46,19,37.11,8,1450,Male,01c0ff08af370b43faf00de4b90e3ea7,same,1,1
4,2,58,24,28,37,7,10,64,32.45,7,1235,Male,01c0ff08af370b43faf00de4b90e3ea7,side,1,2
4,2,59,99,91,82,40,37,91,54.74,6,1220,Male,01c0ff08af370b43faf00de4b90e3ea7,side,4,2
4,2,60,98,91,73,99,91,82,9,8,1307,Male,01c0ff08af370b43faf00de4b90e3ea7,same,4,4
4,2,61,40,37,91,43,46,28,63.64,7,1719,Male,01c0ff08af370b43faf00de4b90e3ea7,side,2,1
4,2,62,53,55,28,92,91,19,37.11,7,1713,Male,01c0ff08af370b43faf00de4b90e3ea7,same,3,3
4,2,63,72,73,19,90,82,91,72.56,7,1558,Male,01c0ff08af370b43faf00de4b90e3ea7,side,3,4
4,2,64,15,19,46,42,46,19,38.18,6,1288,Male,01c0ff08af370b43faf00de4b90e3ea7,same,1,1
4,2,65,57,55,64,85,82,46,32.45,6,1687,Male,01c0ff08af370b43faf00de4b90e3ea7,side,4,3
4,2,66,72,73,19,55,55,46,32.45,6,1001,Male,01c0ff08af370b43faf00de4b90e3ea7,same,3,3
4,2,67,87,82,64,25,28,46,56.92,5,1102,Male,01c0ff08af370b43faf00de4b90e3ea7,cross,4,1
4,2,68,12,19,19,5,10,46,28.46,6,1501,Male,01c0ff08af370b43faf00de4b90e3ea7,same,1,1
4,2,69,97,91,64,70,64,91,38.18,6,896,Male,01c0ff08af370b43faf00de4b90e3ea7,same,4,4
4,2,70,35,37,46,50,46,91,45.89,7,3334,Male,01c0ff08af370b43faf00de4b90e3ea7,side,1,2
4,2,71,13,19,28,34,37,37,20.12,8,1850,Male,01c0ff08af370b43faf00de4b90e3ea7,same,1,1
4,2,72,48,46,73,17,19,64,28.46,8,1462,Male,01c0ff08af370b43faf00de4b90e3ea7,same,2,2
4,2,73,25,28,46,96,91,55,63.64,7,1030,Male,01c0ff08af370b43faf00de4b90e3ea7,cross,1,4
4,2,74,54,55,37,88,82,73,45,6,1837,Male,01c0ff08af370b43faf00de4b90e3ea7,side,3,4
4,2,75,91,91,10,85,82,46,37.11,7,999,Male,01c0ff08af370b43faf00de4b90e3ea7,same,3,3
4,2,76,48,46,73,16,19,55,32.45,7,1146,Male,01c0ff08af370b43faf00de4b90e3ea7,same,2,2
4,2,77,66,64,55,60,55,91,37.11,7,1083,Male,01c0ff08af370b43faf00de4b90e3ea7,same,4,4
4,2,78,85,82,46,1,10,10,80.5,6,1171,Male,01c0ff08af370b43faf00de4b90e3ea7,side,3,1
4,2,79,2,10,19,77,73,64,77.42,6,720,Male,01c0ff08af370b43faf00de4b90e3ea7,cross,1,4
4,2,80,50,46,91,10,10,91,36,7,1512,Male,01c0ff08af370b43faf00de4b90e3ea7,same,2,2
4,2,81,81,82,10,52,55,19,28.46,7,2676,Male,01c0ff08af370b43faf00de4b90e3ea7,same,3,3
4,2,82,21,28,10,87,82,64,76.37,6,1260,Male,01c0ff08af370b43faf00de4b90e3ea7,cross,1,4
4,2,83,74,73,37,52,55,19,25.46,7,1968,Male,01c0ff08af370b43faf00de4b90e3ea7,same,3,3
4,2,84,77,73,64,68,64,73,12.73,8,1274,Male,01c0ff08af370b43faf00de4b90e3ea7,same,4,4
4,2,85,4,10,37,42,46,19,40.25,7,1161,Male,01c0ff08af370b43faf00de4b90e3ea7,same,1,1
4,2,86,97,91,64,88,82,73,12.73,8,1129,Male,01c0ff08af370b43faf00de4b90e3ea7,same,4,4
4,2,87,85,82,46,72,73,19,28.46,7,1020,Male,01c0ff08af370b43faf00de4b90e3ea7,same,3,3
4,2,88,67,64,64,82,82,19,48.47,7,1407,Male,01c0ff08af370b43faf00de4b90e3ea7,side,4,3
4,2,89,89,82,82,13,19,28,82.98,6,949,Male,01c0ff08af370b43faf00de4b90e3ea7,cross,4,1
4,2,90,42,46,19,44,46,37,18,7,1749,Male,01c0ff08af370b43faf00de4b90e3ea7,same,1,1
4,2,91,96,91,55,76,73,55,18,7,1456,Male,01c0ff08af370b43faf00de4b90e3ea7,same,4,4
4,2,92,46,46,55,19,19,82,38.18,7,1315,Male,01c0ff08af370b43faf00de4b90e3ea7,same,2,2
4,2,93,90,82,91,76,73,55,37.11,7,1227,Male,01c0ff08af370b43faf00de4b90e3ea7,same,4,4
4,2,94,83,82,28,50,46,91,72.56,5,2932,Male,01c0ff08af370b43faf00de4b90e3ea7,cross,3,2
4,2,95,79,73,82,53,55,28,56.92,6,2005,Male,01c0ff08af370b43faf00de4b90e3ea7,side,4,3
4,2,96,64,64,37,94,91,37,27,7,2448,Male,01c0ff08af370b43faf00de4b90e3ea7,same,3,3
4,2,97,3,10,28,13,19,28,9,8,1363,Male,01c0ff08af370b43faf00de4b90e3ea7,same,1,1
4,2,98,79,73,82,18,19,73,54.74,5,2325,Male,01c0ff08af370b43faf00de4b90e3ea7,side,4,2
4,2,99,77,73,64,25,28,46,48.47,5,1717,Male,01c0ff08af370b43faf00de4b90e3ea7,cross,4,1
1,1,0,63,64,28,95,91,46,32.45,1,6911,Male,a16938ae6cec21785517de4616fdd0b5,same,3,3
1,1,1,53,55,28,58,55,73,45,8,2606,Male,a16938ae6cec21785517de4616fdd0b5,side,3,4
1,1,2,97,91,64,60,55,91,45,2,5665,Male,a16938ae6cec21785517de4616fdd0b5,same,4,4
1,1,3,27,28,64,33,37,28,37.11,2,4105,Male,a16938ae6cec21785517de4616fdd0b5,side,2,1
1,1,4,3,10,28,18,19,73,45.89,1,2641,Male,a16938ae6cec21785517de4616fdd0b5,side,1,2
1,1,5,54,55,37,63,64,28,12.73,8,2359,Male,a16938ae6cec21785517de4616fdd0b5,same,3,3
1,1,6,6,10,55,88,82,73,74.22,8,3827,Male,a16938ae6cec21785517de4616fdd0b5,side,2,4
1,1,7,83,82,28,34,37,37,45.89,8,2226,Male,a16938ae6cec21785517de4616fdd0b5,side,3,1
1,1,8,31,37,10,5,10,46,45,8,2721,Male,a16938ae6cec21785517de4616fdd0b5,same,1,1
1,1,9,48,46,73,20,19,91,32.45,8,1537,Male,a16938ae6cec21785517de4616fdd0b5,same,2,2
1,1,10,34,37,37,23,28,28,12.73,8,2100,Male,a16938ae6cec21785517de4616fdd0b5,same,1,1
1,1,11,79,73,82,55,55,46,40.25,8,3401,Male,a16938ae6cec21785517de4616fdd0b5,side,4,3
1,1,12,31,37,10,14,19,37,32.45,2,8249,Male,a16938ae6cec21785517de4616fdd0b5,same,1,1
4,1,0,72,73,19,46,46,55,45,8,4698,Male,a16938ae6cec21785517de4616fdd0b5,cross,3,2
4,1,1,84,82,37,31,37,10,52.48,1,1708,Male,a16938ae6cec21785517de4616fdd0b5,side,3,1
4,1,2,95,91,46,94,91,37,9,8,1558,Male,a16938ae6cec21785517de4616fdd0b5,same,3,3
4,1,3,84,82,37,41,46,10,45,1,1103,Male,a16938ae6cec21785517de4616fdd0b5,side,3,1
4,1,4,11,19,10,43,46,28,32.45,8,2029,Male,a16938ae6cec21785517de4616fdd0b5,same,1,1
4,1,5,54,55,37,21,28,10,38.18,8,4062,Male,a16938ae6cec21785517de4616fdd0b5,side,3,1
4,1,6,29,28,82,50,46,91,20.12,8,2902,Male,a16938ae6cec21785517de4616fdd0b5,same,2,2
4,1,7,26,28,55,100,91,91,72.56,1,2212,Male,a16938ae6cec21785517de4616fdd0b5,side,2,4
4,1,8,20,19,91,8,10,73,20.12,8,1920,Male,a16938ae6cec21785517de4616fdd0b5,same,2,2
4,1,9,48,46,73,73,73,28,52.48,1,4613,Male,a16938ae6cec21785517de4616fdd0b5,cross,2,3
4,1,10,48,46,73,9,10,82,37.11,8,2479,Male,a16938ae6cec21785517de4616fdd0b5,same,2,2
4,1,11,60,55,91,34,37,37,56.92,1,3255,Male,a16938ae6cec21785517de4616fdd0b5,cross,4,1
4,1,12,56,55,55,60,55,91,36,8,7461,Male,a16938ae6cec21785517de4616fdd0b5,same,4,4
4,1,13,61,64,10,62,64,19,9,8,1735,Male,a16938ae6cec21785517de4616fdd0b5,same,3,3
4,1,14,85,82,46,91,91,10,37.11,8,1657,Male,a16938ae6cec21785517de4616fdd0b5,same,3,3
4,1,15,10,10,91,38,37,73,32.45,8,12704,Male,a16938ae6cec21785517de4616fdd0b5,same,2,2
4,1,16,76,73,55,29,28,82,52.48,1,1250,Male,a16938ae6cec21785517de4616fdd0b5,side,4,2
4,1,17,81,82,10,89,82,82,72,8,2369,Male,a16938ae6cec21785517de4616fdd0b5,side,3,4
4,1,18,78,73,73,71,73,10,63,8,3503,Male,a16938ae6cec21785517de4616fdd0b5,side,4,3
4,1,19,39,37,82,14,19,37,48.47,1,7508,Male,a16938ae6cec21785517de4616fdd0b5,side,2,1
4,1,20,19,19,82,35,37,46,40.25,8,5016,Male,a16938ae6cec21785517de4616fdd0b5,side,2,1
4,1,21,68,64,73,57,55,64,12.73,8,2485,Male,a16938ae6cec21785517de4616fdd0b5,same,4,4
4,1,22,88,82,73,29,28,82,54.74,1,1143,Male,a16938ae6cec21785517de4616fdd0b5,side,4,2
4,1,23,34,37,37,1,10,10,38.18,8,1731,Male,a16938ae6cec21785517de4616fdd0b5,same,1,1
4,1,24,93,91,28,51,55,10,40.25,8,3908,Male,a16938ae6cec21785517de4616fdd0b5,same,3,3
4,1,25,5,10,46,85,82,46,72,1,1101,Male,a16938ae6cec21785517de4616fdd0b5,side,1,3
4,1,26,70,64,91,6,10,55,64.9,1,2506,Male,a16938ae6cec21785517de4616fdd0b5,side,4,2
4,1,27,58,55,73,79,73,82,20.12,8,3235,Male,a16938ae6cec21785517de4616fdd0b5,same,4,4
4,1,28,98,91,73,55,55,46,45,1,2734,Male,a16938ae6cec21785517de4616fdd0b5,side,4,3
4,1,29,42,46,19,87,82,64,57.63,1,3619,Male,a16938ae6cec21785517de4616fdd0b5,cross,1,4
4,1,30,76,73,55,14,19,37,56.92,1,1986,Male,a16938ae6cec21785517de4616fdd0b5,cross,4,1
4,1,31,2,10,19,20,19,91,72.56,8,1403,Male,a16938ae6cec21785517de4616fdd0b5,side,1,2
4,1,32,30,28,91,48,46,73,25.46,8,1351,Male,a16938ae6cec21785517de4616fdd0b5,same,2,2
4,1,33,77,73,64,46,46,55,28.46,8,2895,Male,a16938ae6cec21785517de4616fdd0b5,side,4,2
4,1,34,47,46,64,86,82,55,37.11,8,2504,Male,a16938ae6cec21785517de4616fdd0b5,side,2,4
4,1,35,61,64,10,19,19,82,84.91,1,1673,Male,a16938ae6cec21785517de4616fdd0b5,cross,3,2
4,1,36,45,46,46,20,19,91,52.48,8,1336,Male,a16938ae6cec21785517de4616fdd0b5,side,1,2
4,1,37,75,73,46,53,55,28,25.46,8,2701,Male,a16938ae6cec21785517de4616fdd0b5,same,3,3
4,1,38,53,55,28,90,82,91,68.54,8,1222,Male,a16938ae6cec21785517de4616fdd0b5,side,3,4
4,1,39,79,73,82,98,91,73,20.12,8,892,Male,a16938ae6cec21785517de4616fdd0b5,same,4,4
4,1,40,96,91,55,53,55,28,45,1,1398,Male,a16938ae6cec21785517de4616fdd0b5,side,4,3
4,1,41,38,37,73,32,37,19,54,8,5385,Male,a16938ae6cec21785517de4616fdd0b5,side,2,1
4,1,42,42,46,19,4,10,37,40.25,8,1321,Male,a16938ae6cec21785517de4616fdd0b5,same,1,1
4,1,43,69,64,82,1,10,10,90,1,1182,Male,a16938ae6cec21785517de4616fdd0b5,cross,4,1
4,1,44,56,55,55,79,73,82,32.45,8,17115,Male,a16938ae6cec21785517de4616fdd0b5,same,4,4
4,1,45,50,46,91,30,28,91,18,8,1883,Male,a16938ae6cec21785517de4616fdd0b5,same,2,2
4,1,46,41,46,10,32,37,19,12.73,8,1274,Male,a16938ae6cec21785517de4616fdd0b5,same,1,1
4,1,47,11,19,10,96,91,55,84.91,1,771,Male,a16938ae6cec21785517de4616fdd0b5,cross,1,4
4,1,48,25,28,46,37,37,64,20.12,8,2593,Male,a16938ae6cec21785517de4616fdd0b5,side,1,2
4,1,49,80,73,91,59,55,82,20.12,8,2708,Male,a16938ae6cec21785517de4616fdd0b5,same,4,4
4,1,50,41,46,10,82,82,19,37.11,8,6918,Male,a16938ae6cec21785517de4616fdd0b5,side,1,3
4,1,51,56,55,55,96,91,55,36,1,1245,Male,a16938ae6cec21785517de4616fdd0b5,same,4,4
4,1,52,70,64,91,3,10,28,82.98,1,2859,Male,a16938ae6cec21785517de4616fdd0b5,cross,4,1
4,1,53,5,10,46,75,73,46,63,1,892,Male,a16938ae6cec21785517de4616fdd0b5,side,1,3
4,1,54,45,46,46,63,64,28,25.46,8,1833,Male,a16938ae6cec21785517de4616fdd0b5,side,1,3
4,1,55,54,55,37,94,91,37,36,1,3534,Male,a16938ae6cec21785517de4616fdd0b5,same,3,3
4,1,56,61,64,10,99,91,82,76.9,1,1493,Male,a16938ae6cec21785517de4616fdd0b5,side,3,4
4,1,57,49,46,82,9,10,82,36,8,5782,Male,a16938ae6cec21785517de4616fdd0b5,same,2,2
4,1,58,85,82,46,74,73,37,12.73,8,1356,Male,a16938ae6cec21785517de4616fdd0b5,same,3,3
4,1,59,65,64,46,82,82,19,32.45,8,1098,Male,a16938ae6cec21785517de4616fdd0b5,same,3,3
4,1,60,93,91,28,10,10,91,102.62,1,842,Male,a16938ae6cec21785517de4616fdd0b5,cross,3,2
4,1,61,5,10,46,91,91,10,88.64,1,715,Male,a16938ae6cec21785517de4616fdd0b5,side,1,3
4,1,62,2,10,19,12,19,19,9,8,1118,Male,a16938ae6cec21785517de4616fdd0b5,same,1,1
4,1,63,23,28,28,39,37,82,54.74,8,2784,Male,a16938ae6cec21785517de4616fdd0b5,side,1,2
4,1,64,67,64,64,95,91,46,32.45,8,2104,Male,a16938ae6cec21785517de4616fdd0b5,side,4,3
4,1,65,42,46,19,31,37,10,12.73,8,1313,Male,a16938ae6cec21785517de4616fdd0b5,same,1,1
4,1,66,30,28,91,93,91,28,89.1,1,780,Male,a16938ae6cec21785517de4616fdd0b5,cross,2,3
4,1,67,22,28,19,56,55,55,45,8,4737,Male,a16938ae6cec21785517de4616fdd0b5,cross,1,4
4,1,68,70,64,91,86,82,55,40.25,8,1034,Male,a16938ae6cec21785517de4616fdd0b5,same,4,4
4,1,69,13,19,28,2,10,19,12.73,8,1064,Male,a16938ae6cec21785517de4616fdd0b5,same,1,1
4,1,70,100,91,91,10,10,91,81,1,1322,Male,a16938ae6cec21785517de4616fdd0b5,side,4,2
4,1,71,33,37,28,76,73,55,45,1,2157,Male,a16938ae6cec21785517de4616fdd0b5,cross,1,4
4,1,72,11,19,10,52,55,19,37.11,8,2215,Male,a16938ae6cec21785517de4616fdd0b5,side,1,3
4,1,73,37,37,64,69,64,82,32.45,1,986,Male,a16938ae6cec21785517de4616fdd0b5,side,2,4
4,1,74,83,82,28,58,55,73,52.48,8,1824,Male,a16938ae6cec21785517de4616fdd0b5,side,3,4
4,1,75,56,55,55,87,82,64,28.46,8,1419,Male,a16938ae6cec21785517de4616fdd0b5,same,4,4
4,1,76,90,82,91,38,37,73,48.47,1,1308,Male,a16938ae6cec21785517de4616fdd0b5,side,4,2
4,1,77,95,91,46,17,19,64,74.22,1,1491,Male,a16938ae6cec21785517de4616fdd0b5,cross,3,2
4,1,78,30,28,91,70,64,91,36,1,828,Male,a16938ae6cec21785517de4616fdd0b5,side,2,4
4,1,79,64,64,37,57,55,64,28.46,8,1191,Male,a16938ae6cec21785517de4616fdd0b5,side,3,4
4,1,80,10,10,91,20,19,91,9,8,1187,Male,a16938ae6cec21785517de4616fdd0b5,same,2,2
4,1,81,24,28,37,7,10,64,32.45,8,1219,Male,a16938ae6cec21785517de4616fdd0b5,side,1,2
4,1,82,39,37,82,65,64,46,45,8,934,Male,a16938ae6cec21785517de4616fdd0b5,cross,2,3
4,1,83,84,82,37,69,64,82,48.47,8,995,Male,a16938ae6cec21785517de4616fdd0b5,side,3,4
4,1,84,95,91,46,53,55,28,40.25,8,2442,Male,a16938ae6cec21785517de4616fdd0b5,same,3,3
4,1,85,46,46,55,9,10,82,45,8,2323,Male,a16938ae6cec21785517de4616fdd0b5,same,2,2
4,1,86,59,55,82,86,82,55,38.18,8,1421,Male,a16938ae6cec21785517de4616fdd0b5,same,4,4
4,1,87,43,46,28,6,10,55,45,8,989,Male,a16938ae6cec21785517de4616fdd0b5,side,1,2
4,1,88,2,10,19,21,28,10,20.12,8,932,Male,a16938ae6cec21785517de4616fdd0b5,same,1,1
4,1,89,66,64,55,1,10,10,70.29,1,1186,Male,a16938ae6cec21785517de4616fdd0b5,cross,4,1
4,1,90,71,73,10,18,19,73,82.98,8,1656,Male,a16938ae6cec21785517de4616fdd0b5,cross,3,2
4,1,91,20,19,91,36,37,55,40.25,8,3113,Male,a16938ae6cec21785517de4616fdd0b5,same,2,2
4,1,92,5,10,46,42,46,19,45,1,3976,Male,a16938ae6cec21785517de4616fdd0b5,same,1,1
4,1,93,10,10,91,43,46,28,72.56,1,1653,Male,a16938ae6cec21785517de4616fdd0b5,side,2,1
4,1,94,65,64,46,11,19,10,57.63,1,1409,Male,a16938ae6cec21785517de4616fdd0b5,side,3,1
4,1,95,32,37,19,15,19,46,32.45,8,1240,Male,a16938ae6cec21785517de4616fdd0b5,same,1,1
4,1,96,47,46,64,94,91,37,52.48,8,1007,Male,a16938ae6cec21785517de4616fdd0b5,cross,2,3
4,1,97,82,82,19,36,37,55,57.63,1,1033,Male,a16938ae6cec21785517de4616fdd0b5,cross,3,2
4,1,98,22,28,19,97,91,64,77.42,1,2853,Male,a16938ae6cec21785517de4616fdd0b5,cross,1,4
4,1,99,75,73,46,72,73,19,27,8,1529,Male,a16938ae6cec21785517de4616fdd0b5,same,3,3
4,2,0,75,73,46,5,10,46,63,1,2923,Male,a16938ae6cec21785517de4616fdd0b5,side,3,1
4,2,1,2,10,19,13,19,28,12.73,8,2906,Male,a16938ae6cec21785517de4616fdd0b5,same,1,1
4,2,2,34,37,37,1,10,10,38.18,8,1587,Male,a16938ae6cec21785517de4616fdd0b5,same,1,1
4,2,3,10,10,91,38,37,73,32.45,8,1901,Male,a16938ae6cec21785517de4616fdd0b5,same,2,2
4,2,4,9,10,82,46,46,55,45,1,1978,Male,a16938ae6cec21785517de4616fdd0b5,same,2,2
4,2,5,19,19,82,35,37,46,40.25,8,3326,Male,a16938ae6cec21785517de4616fdd0b5,side,2,1
4,2,6,85,82,46,5,10,46,72,1,1465,Male,a16938ae6cec21785517de4616fdd0b5,side,3,1
4,2,7,70,64,91,86,82,55,40.25,8,3382,Male,a16938ae6cec21785517de4616fdd0b5,same,4,4
4,2,8,48,46,73,30,28,91,25.46,1,1719,Male,a16938ae6cec21785517de4616fdd0b5,same,2,2
4,2,9,89,82,82,81,82,10,72,8,5071,Male,a16938ae6cec21785517de4616fdd0b5,side,4,3
4,2,10,42,46,19,87,82,64,57.63,1,2168,Male,a16938ae6cec21785517de4616fdd0b5,cross,1,4
4,2,11,85,82,46,74,73,37,12.73,8,1464,Male,a16938ae6cec21785517de4616fdd0b5,same,3,3
4,2,12,30,28,91,50,46,91,18,8,1799,Male,a16938ae6cec21785517de4616fdd0b5,same,2,2
4,2,13,2,10,19,21,28,10,20.12,8,1091,Male,a16938ae6cec21785517de4616fdd0b5,same,1,1
4,2,14,79,73,82,56,55,55,32.45,8,1803,Male,a16938ae6cec21785517de4616fdd0b5,same,4,4
4,2,15,41,46,10,82,82,19,37.11,1,4685,Male,a16938ae6cec21785517de4616fdd0b5,side,1,3
4,2,16,38,37,73,32,37,19,54,8,1044,Male,a16938ae6cec21785517de4616fdd0b5,side,2,1
4,2,17,100,91,91,26,28,55,72.56,1,1690,Male,a16938ae6cec21785517de4616fdd0b5,side,4,2
4,2,18,23,28,28,39,37,82,54.74,8,945,Male,a16938ae6cec21785517de4616fdd0b5,side,1,2
4,2,19,67,64,64,95,91,46,32.45,8,2061,Male,a16938ae6cec21785517de4616fdd0b5,side,4,3
4,2,20,91,91,10,5,10,46,88.64,1,767,Male,a16938ae6cec21785517de4616fdd0b5,side,3,1
4,2,21,11,19,10,52,55,19,37.11,1,1107,Male,a16938ae6cec21785517de4616fdd0b5,side,1,3
4,2,22,36,37,55,20,19,91,40.25,8,1333,Male,a16938ae6cec21785517de4616fdd0b5,same,2,2
4,2,23,61,64,10,19,19,82,84.91,1,909,Male,a16938ae6cec21785517de4616fdd0b5,cross,3,2
4,2,24,6,10,55,70,64,91,64.9,8,985,Male,a16938ae6cec21785517de4616fdd0b5,side,2,4
4,2,25,20,19,91,8,10,73,20.12,8,1344,Male,a16938ae6cec21785517de4616fdd0b5,same,2,2
4,2,26,88,82,73,29,28,82,54.74,1,878,Male,a16938ae6cec21785517de4616fdd0b5,side,4,2
4,2,27,14,19,37,76,73,55,56.92,1,798,Male,a16938ae6cec21785517de4616fdd0b5,cross,1,4
4,2,28,59,55,82,86,82,55,38.18,1,4630,Male,a16938ae6cec21785517de4616fdd0b5,same,4,4
4,2,29,56,55,55,22,28,19,45,8,1594,Male,a16938ae6cec21785517de4616fdd0b5,cross,4,1
4,2,30,85,82,46,91,91,10,37.11,8,972,Male,a16938ae6cec21785517de4616fdd0b5,same,3,3
4,2,31,43,46,28,11,19,10,32.45,1,797,Male,a16938ae6cec21785517de4616fdd0b5,same,1,1
4,2,32,95,91,46,94,91,37,9,8,1424,Male,a16938ae6cec21785517de4616fdd0b5,same,3,3
4,2,33,80,73,91,59,55,82,20.12,8,898,Male,a16938ae6cec21785517de4616fdd0b5,same,4,4
4,2,34,39,37,82,65,64,46,45,8,924,Male,a16938ae6cec21785517de4616fdd0b5,cross,2,3
4,2,35,61,64,10,99,91,82,76.9,8,941,Male,a16938ae6cec21785517de4616fdd0b5,side,3,4
4,2,36,71,73,10,78,73,73,63,8,953,Male,a16938ae6cec21785517de4616fdd0b5,side,3,4
4,2,37,50,46,91,29,28,82,20.12,8,1600,Male,a16938ae6cec21785517de4616fdd0b5,same,2,2
4,2,38,33,37,28,76,73,55,45,1,1544,Male,a16938ae6cec21785517de4616fdd0b5,cross,1,4
4,2,39,9,10,82,48,46,73,37.11,8,3167,Male,a16938ae6cec21785517de4616fdd0b5,same,2,2
4,2,40,43,46,28,10,10,91,72.56,8,1863,Male,a16938ae6cec21785517de4616fdd0b5,side,1,2
4,2,41,71,73,10,18,19,73,82.98,8,1039,Male,a16938ae6cec21785517de4616fdd0b5,cross,3,2
4,2,42,90,82,91,53,55,28,68.54,1,1403,Male,a16938ae6cec21785517de4616fdd0b5,side,4,3
4,2,43,17,19,64,95,91,46,74.22,8,968,Male,a16938ae6cec21785517de4616fdd0b5,cross,2,3
4,2,44,65,64,46,82,82,19,32.45,8,1825,Male,a16938ae6cec21785517de4616fdd0b5,same,3,3
4,2,45,98,91,73,55,55,46,45,8,1273,Male,a16938ae6cec21785517de4616fdd0b5,side,4,3
4,2,46,1,10,10,69,64,82,90,1,786,Male,a16938ae6cec21785517de4616fdd0b5,cross,1,4
4,2,47,72,73,19,46,46,55,45,1,923,Male,a16938ae6cec21785517de4616fdd0b5,cross,3,2
4,2,48,41,46,10,32,37,19,12.73,8,1333,Male,a16938ae6cec21785517de4616fdd0b5,same,1,1
4,2,49,24,28,37,7,10,64,32.45,8,943,Male,a16938ae6cec21785517de4616fdd0b5,side,1,2
4,2,50,53,55,28,95,91,46,40.25,1,813,Male,a16938ae6cec21785517de4616fdd0b5,same,3,3
4,2,51,61,64,10,62,64,19,9,8,850,Male,a16938ae6cec21785517de4616fdd0b5,same,3,3
4,2,52,87,82,64,56,55,55,28.46,8,996,Male,a16938ae6cec21785517de4616fdd0b5,same,4,4
4,2,53,34,37,37,60,55,91,56.92,8,857,Male,a16938ae6cec21785517de4616fdd0b5,cross,1,4
4,2,54,65,64,46,11,19,10,57.63,1,898,Male,a16938ae6cec21785517de4616fdd0b5,side,3,1
4,2,55,11,19,10,96,91,55,84.91,1,1428,Male,a16938ae6cec21785517de4616fdd0b5,cross,1,4
4,2,56,54,55,37,21,28,10,38.18,1,968,Male,a16938ae6cec21785517de4616fdd0b5,side,3,1
4,2,57,94,91,37,47,46,64,52.48,1,1199,Male,a16938ae6cec21785517de4616fdd0b5,cross,3,2
4,2,58,38,37,73,90,82,91,48.47,1,1932,Male,a16938ae6cec21785517de4616fdd0b5,side,2,4
4,2,59,58,55,73,79,73,82,20.12,8,987,Male,a16938ae6cec21785517de4616fdd0b5,same,4,4
4,2,60,58,55,73,83,82,28,52.48,8,1223,Male,a16938ae6cec21785517de4616fdd0b5,side,4,3
4,2,61,22,28,19,97,91,64,77.42,1,928,Male,a16938ae6cec21785517de4616fdd0b5,cross,1,4
4,2,62,56,55,55,60,55,91,36,8,1616,Male,a16938ae6cec21785517de4616fdd0b5,same,4,4
4,2,63,68,64,73,57,55,64,12.73,8,894,Male,a16938ae6cec21785517de4616fdd0b5,same,4,4
4,2,64,100,91,91,10,10,91,81,1,1784,Male,a16938ae6cec21785517de4616fdd0b5,side,4,2
4,2,65,42,46,19,31,37,10,12.73,8,1482,Male,a16938ae6cec21785517de4616fdd0b5,same,1,1
4,2,66,63,64,28,45,46,46,25.46,8,3865,Male,a16938ae6cec21785517de4616fdd0b5,side,3,1
4,2,67,12,19,19,2,10,19,9,8,1250,Male,a16938ae6cec21785517de4616fdd0b5,same,1,1
4,2,68,51,55,10,93,91,28,40.25,1,2117,Male,a16938ae6cec21785517de4616fdd0b5,same,3,3
4,2,69,79,73,82,98,91,73,20.12,8,1496,Male,a16938ae6cec21785517de4616fdd0b5,same,4,4
4,2,70,5,10,46,42,46,19,45,8,2672,Male,a16938ae6cec21785517de4616fdd0b5,same,1,1
4,2,71,42,46,19,4,10,37,40.25,8,1251,Male,a16938ae6cec21785517de4616fdd0b5,same,1,1
4,2,72,73,73,28,48,46,73,52.48,8,1467,Male,a16938ae6cec21785517de4616fdd0b5,cross,3,2
4,2,73,69,64,82,84,82,37,48.47,8,1250,Male,a16938ae6cec21785517de4616fdd0b5,side,4,3
4,2,74,30,28,91,93,91,28,89.1,1,789,Male,a16938ae6cec21785517de4616fdd0b5,cross,2,3
4,2,75,41,46,10,84,82,37,45,1,811,Male,a16938ae6cec21785517de4616fdd0b5,side,1,3
4,2,76,47,46,64,86,82,55,37.11,1,706,Male,a16938ae6cec21785517de4616fdd0b5,side,2,4
4,2,77,32,37,19,15,19,46,32.45,1,785,Male,a16938ae6cec21785517de4616fdd0b5,same,1,1
4,2,78,82,82,19,36,37,55,57.63,1,1394,Male,a16938ae6cec21785517de4616fdd0b5,cross,3,2
4,2,79,69,64,82,37,37,64,32.45,8,3926,Male,a16938ae6cec21785517de4616fdd0b5,side,4,2
4,2,80,53,55,28,96,91,55,45,1,3701,Male,a16938ae6cec21785517de4616fdd0b5,side,3,4
4,2,81,70,64,91,30,28,91,36,1,1096,Male,a16938ae6cec21785517de4616fdd0b5,side,4,2
4,2,82,53,55,28,75,73,46,25.46,8,1008,Male,a16938ae6cec21785517de4616fdd0b5,same,3,3
4,2,83,29,28,82,76,73,55,52.48,1,1057,Male,a16938ae6cec21785517de4616fdd0b5,side,2,4
4,2,84,14,19,37,39,37,82,48.47,8,1321,Male,a16938ae6cec21785517de4616fdd0b5,side,1,2
4,2,85,31,37,10,84,82,37,52.48,8,981,Male,a16938ae6cec21785517de4616fdd0b5,side,1,3
4,2,86,77,73,64,46,46,55,28.46,8,886,Male,a16938ae6cec21785517de4616fdd0b5,side,4,2
4,2,87,96,91,55,56,55,55,36,8,760,Male,a16938ae6cec21785517de4616fdd0b5,same,4,4
4,2,88,3,10,28,70,64,91,82.98,1,947,Male,a16938ae6cec21785517de4616fdd0b5,cross,1,4
4,2,89,54,55,37,94,91,37,36,1,836,Male,a16938ae6cec21785517de4616fdd0b5,same,3,3
4,2,90,1,10,10,66,64,55,70.29,1,894,Male,a16938ae6cec21785517de4616fdd0b5,cross,1,4
4,2,91,10,10,91,93,91,28,102.62,1,771,Male,a16938ae6cec21785517de4616fdd0b5,cross,2,3
4,2,92,9,10,82,49,46,82,36,8,1315,Male,a16938ae6cec21785517de4616fdd0b5,same,2,2
4,2,93,37,37,64,25,28,46,20.12,8,1195,Male,a16938ae6cec21785517de4616fdd0b5,side,2,1
4,2,94,57,55,64,64,64,37,28.46,8,811,Male,a16938ae6cec21785517de4616fdd0b5,side,4,3
4,2,95,72,73,19,75,73,46,27,8,798,Male,a16938ae6cec21785517de4616fdd0b5,same,3,3
4,2,96,20,19,91,45,46,46,52.48,8,1336,Male,a16938ae6cec21785517de4616fdd0b5,side,2,1
4,2,97,10,10,91,20,19,91,9,8,906,Male,a16938ae6cec21785517de4616fdd0b5,same,2,2
4,2,98,6,10,55,43,46,28,45,8,839,Male,a16938ae6cec21785517de4616fdd0b5,side,2,1
4,2,99,2,10,19,20,19,91,72.56,8,698,Male,a16938ae6cec21785517de4616fdd0b5,side,1,2
1,1,0,21,28,10,2,10,19,20.12,7,3503,Male,b35db31e1ae3a04f2df6bbf2dec6eb07,same,1,1
1,1,1,19,19,82,97,91,64,74.22,7,2755,Male,b35db31e1ae3a04f2df6bbf2dec6eb07,side,2,4
1,1,2,50,46,91,82,82,19,80.5,3,2531,Male,b35db31e1ae3a04f2df6bbf2dec6eb07,cross,2,3
1,1,3,15,19,46,88,82,73,68.54,4,2401,Male,b35db31e1ae3a04f2df6bbf2dec6eb07,cross,1,4
1,1,4,1,10,10,36,37,55,52.48,4,2743,Male,b35db31e1ae3a04f2df6bbf2dec6eb07,side,1,2
1,1,5,85,82,46,18,19,73,68.54,5,2492,Male,b35db31e1ae3a04f2df6bbf2dec6eb07,cross,3,2
1,1,6,67,64,64,70,64,91,27,6,2420,Male,b35db31e1ae3a04f2df6bbf2dec6eb07,same,4,4
1,1,7,87,82,64,16,19,55,63.64,5,1956,Male,b35db31e1ae3a04f2df6bbf2dec6eb07,side,4,2
1,1,8,17,19,64,84,82,37,68.54,4,3570,Male,b35db31e1ae3a04f2df6bbf2dec6eb07,cross,2,3
1,1,9,98,91,73,60,55,91,40.25,7,2178,Male,b35db31e1ae3a04f2df6bbf2dec6eb07,same,4,4
1,1,10,60,55,91,56,55,55,36,6,2156,Male,b35db31e1ae3a04f2df6bbf2dec6eb07,same,4,4
1,1,11,75,73,46,80,73,91,45,6,1804,Male,b35db31e1ae3a04f2df6bbf2dec6eb07,side,3,4
1,1,12,15,19,46,97,91,64,74.22,3,2347,Male,b35db31e1ae3a04f2df6bbf2dec6eb07,cross,1,4
1,1,13,57,55,64,90,82,91,38.18,4,3006,Male,b35db31e1ae3a04f2df6bbf2dec6eb07,same,4,4
1,1,14,68,64,73,79,73,82,12.73,7,2313,Male,b35db31e1ae3a04f2df6bbf2dec6eb07,same,4,4
1,1,15,41,46,10,81,82,10,36,6,2692,Male,b35db31e1ae3a04f2df6bbf2dec6eb07,side,1,3
1,1,16,27,28,64,68,64,73,37.11,6,2945,Male,b35db31e1ae3a04f2df6bbf2dec6eb07,side,2,4
1,1,17,40,37,91,1,10,10,85.38,2,4041,Male,b35db31e1ae3a04f2df6bbf2dec6eb07,side,2,1
1,1,18,64,64,37,63,64,28,9,8,3316,Male,b35db31e1ae3a04f2df6bbf2dec6eb07,same,3,3
1,1,19,24,28,37,41,46,10,32.45,5,2425,Male,b35db31e1ae3a04f2df6bbf2dec6eb07,same,1,1
1,1,20,45,46,46,15,19,46,27,5,3909,Male,b35db31e1ae3a04f2df6bbf2dec6eb07,same,1,1
1,1,21,9,10,82,60,55,91,45.89,5,2610,Male,b35db31e1ae3a04f2df6bbf2dec6eb07,side,2,4
1,1,22,4,10,37,41,46,10,45,5,3296,Male,b35db31e1ae3a04f2df6bbf2dec6eb07,same,1,1
1,1,23,64,64,37,54,55,37,9,8,2032,Male,b35db31e1ae3a04f2df6bbf2dec6eb07,same,3,3
1,1,24,2,10,19,10,10,91,72,4,3320,Male,b35db31e1ae3a04f2df6bbf2dec6eb07,side,1,2
1,1,25,51,55,10,74,73,37,32.45,6,4429,Male,b35db31e1ae3a04f2df6bbf2dec6eb07,same,3,3
1,1,26,25,28,46,16,19,55,12.73,7,2203,Male,b35db31e1ae3a04f2df6bbf2dec6eb07,side,1,2
1,1,27,78,73,73,97,91,64,20.12,7,2466,Male,b35db31e1ae3a04f2df6bbf2dec6eb07,same,4,4
1,1,28,2,10,19,88,82,73,90,2,2069,Male,b35db31e1ae3a04f2df6bbf2dec6eb07,cross,1,4
1,1,29,66,64,55,19,19,82,52.48,4,3133,Male,b35db31e1ae3a04f2df6bbf2dec6eb07,side,4,2
1,1,30,32,37,19,84,82,37,48.47,4,2662,Male,b35db31e1ae3a04f2df6bbf2dec6eb07,side,1,3
1,1,31,91,91,10,40,37,91,97.35,1,4158,Male,b35db31e1ae3a04f2df6bbf2dec6eb07,cross,3,2
1,1,32,53,55,28,67,64,64,37.11,5,2830,Male,b35db31e1ae3a04f2df6bbf2dec6eb07,side,3,4
1,1,33,94,91,37,25,28,46,63.64,3,3595,Male,b35db31e1ae3a04f2df6bbf2dec6eb07,side,3,1
1,1,34,26,28,55,65,64,46,37.11,4,2113,Male,b35db31e1ae3a04f2df6bbf2dec6eb07,cross,2,3
1,1,35,82,82,19,1,10,10,72.56,3,3451,Male,b35db31e1ae3a04f2df6bbf2dec6eb07,side,3,1
1,1,36,54,55,37,92,91,19,40.25,5,2955,Male,b35db31e1ae3a04f2df6bbf2dec6eb07,same,3,3
1,1,37,40,37,91,24,28,37,54.74,3,3048,Male,b35db31e1ae3a04f2df6bbf2dec6eb07,side,2,1
1,1,38,13,19,28,82,82,19,63.64,5,2832,Male,b35db31e1ae3a04f2df6bbf2dec6eb07,side,1,3
1,1,39,82,82,19,52,55,19,27,5,2252,Male,b35db31e1ae3a04f2df6bbf2dec6eb07,same,3,3
1,1,40,73,73,28,33,37,28,36,4,4531,Male,b35db31e1ae3a04f2df6bbf2dec6eb07,side,3,1
1,1,41,38,37,73,44,46,37,37.11,6,2697,Male,b35db31e1ae3a04f2df6bbf2dec6eb07,side,2,1
1,1,42,26,28,55,80,73,91,57.63,2,2873,Male,b35db31e1ae3a04f2df6bbf2dec6eb07,side,2,4
1,1,43,45,46,46,53,55,28,20.12,3,2003,Male,b35db31e1ae3a04f2df6bbf2dec6eb07,side,1,3
1,1,44,61,64,10,90,82,91,82.98,4,3238,Male,b35db31e1ae3a04f2df6bbf2dec6eb07,side,3,4
1,1,45,11,19,10,96,91,55,84.91,2,1989,Male,b35db31e1ae3a04f2df6bbf2dec6eb07,cross,1,4
1,1,46,42,46,19,70,64,91,74.22,4,2548,Male,b35db31e1ae3a04f2df6bbf2dec6eb07,cross,1,4
1,1,47,43,46,28,33,37,28,9,8,2091,Male,b35db31e1ae3a04f2df6bbf2dec6eb07,same,1,1
1,1,48,82,82,19,12,19,19,63,6,2889,Male,b35db31e1ae3a04f2df6bbf2dec6eb07,side,3,1
1,1,49,71,73,10,40,37,91,88.64,2,2811,Male,b35db31e1ae3a04f2df6bbf2dec6eb07,cross,3,2
1,1,50,17,19,64,6,10,55,12.73,8,2099,Male,b35db31e1ae3a04f2df6bbf2dec6eb07,same,2,2
1,1,51,38,37,73,55,55,46,32.45,7,2001,Male,b35db31e1ae3a04f2df6bbf2dec6eb07,cross,2,3
1,1,52,63,64,28,99,91,82,60.37,4,3516,Male,b35db31e1ae3a04f2df6bbf2dec6eb07,side,3,4
1,1,53,98,91,73,100,91,91,18,7,2158,Male,b35db31e1ae3a04f2df6bbf2dec6eb07,same,4,4
1,1,54,79,73,82,29,28,82,45,5,2541,Male,b35db31e1ae3a04f2df6bbf2dec6eb07,side,4,2
1,1,55,63,64,28,88,82,73,48.47,5,2957,Male,b35db31e1ae3a04f2df6bbf2dec6eb07,side,3,4
1,1,56,28,28,73,48,46,73,18,6,3079,Male,b35db31e1ae3a04f2df6bbf2dec6eb07,same,2,2
1,1,57,46,46,55,7,10,64,37.11,5,2603,Male,b35db31e1ae3a04f2df6bbf2dec6eb07,same,2,2
1,1,58,64,64,37,21,28,10,45,2,2623,Male,b35db31e1ae3a04f2df6bbf2dec6eb07,side,3,1
1,1,59,45,46,46,13,19,28,32.45,2,3218,Male,b35db31e1ae3a04f2df6bbf2dec6eb07,same,1,1
1,1,60,34,37,37,35,37,46,9,7,2649,Male,b35db31e1ae3a04f2df6bbf2dec6eb07,same,1,1
1,1,61,59,55,82,68,64,73,12.73,8,1687,Male,b35db31e1ae3a04f2df6bbf2dec6eb07,same,4,4
1,1,62,95,91,46,55,55,46,36,7,2128,Male,b35db31e1ae3a04f2df6bbf2dec6eb07,same,3,3
1,1,63,71,73,10,81,82,10,9,8,2097,Male,b35db31e1ae3a04f2df6bbf2dec6eb07,same,3,3
1,1,64,28,28,73,51,55,10,68.54,4,2188,Male,b35db31e1ae3a04f2df6bbf2dec6eb07,cross,2,3
1,1,65,90,82,91,73,73,28,63.64,4,2114,Male,b35db31e1ae3a04f2df6bbf2dec6eb07,side,4,3
1,1,66,48,46,73,11,19,10,68.54,4,3670,Male,b35db31e1ae3a04f2df6bbf2dec6eb07,side,2,1
1,1,67,90,82,91,84,82,37,54,6,2767,Male,b35db31e1ae3a04f2df6bbf2dec6eb07,side,4,3
1,1,68,48,46,73,10,10,91,40.25,5,3255,Male,b35db31e1ae3a04f2df6bbf2dec6eb07,same,2,2
1,1,69,18,19,73,33,37,28,48.47,4,2410,Male,b35db31e1ae3a04f2df6bbf2dec6eb07,side,2,1
1,1,70,95,91,46,16,19,55,72.56,3,2453,Male,b35db31e1ae3a04f2df6bbf2dec6eb07,cross,3,2
1,1,71,95,91,46,52,55,19,45,3,2391,Male,b35db31e1ae3a04f2df6bbf2dec6eb07,same,3,3
1,1,72,80,73,91,66,64,55,37.11,5,2762,Male,b35db31e1ae3a04f2df6bbf2dec6eb07,same,4,4
1,1,73,46,46,55,8,10,73,40.25,3,2294,Male,b35db31e1ae3a04f2df6bbf2dec6eb07,same,2,2
1,1,74,47,46,64,28,28,73,20.12,7,2317,Male,b35db31e1ae3a04f2df6bbf2dec6eb07,same,2,2
1,1,75,61,64,10,93,91,28,32.45,4,4026,Male,b35db31e1ae3a04f2df6bbf2dec6eb07,same,3,3
1,1,76,37,37,64,18,19,73,20.12,6,2815,Male,b35db31e1ae3a04f2df6bbf2dec6eb07,same,2,2
1,1,77,99,91,82,42,46,19,77.42,2,3106,Male,b35db31e1ae3a04f2df6bbf2dec6eb07,cross,4,1
1,1,78,26,28,55,50,46,91,40.25,4,3542,Male,b35db31e1ae3a04f2df6bbf2dec6eb07,same,2,2
1,1,79,55,55,46,96,91,55,37.11,4,2007,Male,b35db31e1ae3a04f2df6bbf2dec6eb07,side,3,4
1,1,80,56,55,55,1,10,10,63.64,2,2223,Male,b35db31e1ae3a04f2df6bbf2dec6eb07,cross,4,1
1,1,81,51,55,10,98,91,73,72.56,1,2378,Male,b35db31e1ae3a04f2df6bbf2dec6eb07,side,3,4
1,1,82,70,64,91,86,82,55,40.25,6,4477,Male,b35db31e1ae3a04f2df6bbf2dec6eb07,same,4,4
1,1,83,88,82,73,85,82,46,27,6,2628,Male,b35db31e1ae3a04f2df6bbf2dec6eb07,side,4,3
1,1,84,78,73,73,44,46,37,45,6,3453,Male,b35db31e1ae3a04f2df6bbf2dec6eb07,cross,4,1
1,1,85,38,37,73,88,82,73,45,5,3055,Male,b35db31e1ae3a04f2df6bbf2dec6eb07,side,2,4
1,1,86,39,37,82,30,28,91,12.73,7,3051,Male,b35db31e1ae3a04f2df6bbf2dec6eb07,same,2,2
1,1,87,89,82,82,8,10,73,72.56,4,2863,Male,b35db31e1ae3a04f2df6bbf2dec6eb07,side,4,2
1,1,88,1,10,10,6,10,55,45,6,5658,Male,b35db31e1ae3a04f2df6bbf2dec6eb07,side,1,2
1,1,89,34,37,37,45,46,46,12.73,6,3708,Male,b35db31e1ae3a04f2df6bbf2dec6eb07,same,1,1
1,1,90,76,73,55,24,28,37,48.47,5,2448,Male,b35db31e1ae3a04f2df6bbf2dec6eb07,cross,4,1
1,1,91,1,10,10,33,37,28,32.45,2,1882,Male,b35db31e1ae3a04f2df6bbf2dec6eb07,same,1,1
1,1,92,16,19,55,10,10,91,37.11,6,2378,Male,b35db31e1ae3a04f2df6bbf2dec6eb07,same,2,2
1,1,93,95,91,46,93,91,28,18,7,1855,Male,b35db31e1ae3a04f2df6bbf2dec6eb07,same,3,3
1,1,94,95,91,46,5,10,46,81,3,2769,Male,b35db31e1ae3a04f2df6bbf2dec6eb07,side,3,1
1,1,95,21,28,10,16,19,55,45.89,5,2764,Male,b35db31e1ae3a04f2df6bbf2dec6eb07,side,1,2
1,1,96,48,46,73,79,73,82,28.46,4,2434,Male,b35db31e1ae3a04f2df6bbf2dec6eb07,side,2,4
1,1,97,1,10,10,24,28,37,32.45,4,5729,Male,b35db31e1ae3a04f2df6bbf2dec6eb07,same,1,1
1,1,98,17,19,64,83,82,28,72.56,1,2723,Male,b35db31e1ae3a04f2df6bbf2dec6eb07,cross,2,3
1,1,99,57,55,64,2,10,19,63.64,1,2210,Male,b35db31e1ae3a04f2df6bbf2dec6eb07,cross,4,1
1,2,0,57,55,64,2,10,19,63.64,3,3681,Male,b35db31e1ae3a04f2df6bbf2dec6eb07,cross,4,1
1,2,1,83,82,28,17,19,64,72.56,4,2004,Male,b35db31e1ae3a04f2df6bbf2dec6eb07,cross,3,2
1,2,2,11,19,10,96,91,55,84.91,2,2646,Male,b35db31e1ae3a04f2df6bbf2dec6eb07,cross,1,4
1,2,3,50,46,91,82,82,19,80.5,2,1692,Male,b35db31e1ae3a04f2df6bbf2dec6eb07,cross,2,3
1,2,4,98,91,73,51,55,10,72.56,3,1662,Male,b35db31e1ae3a04f2df6bbf2dec6eb07,side,4,3
1,2,5,41,46,10,24,28,37,32.45,6,2391,Male,b35db31e1ae3a04f2df6bbf2dec6eb07,same,1,1
1,2,6,79,73,82,68,64,73,12.73,7,1730,Male,b35db31e1ae3a04f2df6bbf2dec6eb07,same,4,4
1,2,7,2,10,19,10,10,91,72,5,2047,Male,b35db31e1ae3a04f2df6bbf2dec6eb07,side,1,2
1,2,8,66,64,55,19,19,82,52.48,4,2614,Male,b35db31e1ae3a04f2df6bbf2dec6eb07,side,4,2
1,2,9,41,46,10,81,82,10,36,5,1664,Male,b35db31e1ae3a04f2df6bbf2dec6eb07,side,1,3
1,2,10,85,82,46,18,19,73,68.54,4,1944,Male,b35db31e1ae3a04f2df6bbf2dec6eb07,cross,3,2
1,2,11,98,91,73,60,55,91,40.25,5,1937,Male,b35db31e1ae3a04f2df6bbf2dec6eb07,same,4,4
1,2,12,86,82,55,70,64,91,40.25,4,1141,Male,b35db31e1ae3a04f2df6bbf2dec6eb07,same,4,4
1,2,13,64,64,37,63,64,28,9,6,2227,Male,b35db31e1ae3a04f2df6bbf2dec6eb07,same,3,3
1,2,14,46,46,55,8,10,73,40.25,5,1725,Male,b35db31e1ae3a04f2df6bbf2dec6eb07,same,2,2
1,2,15,71,73,10,40,37,91,88.64,2,1684,Male,b35db31e1ae3a04f2df6bbf2dec6eb07,cross,3,2
1,2,16,67,64,64,70,64,91,27,5,2658,Male,b35db31e1ae3a04f2df6bbf2dec6eb07,same,4,4
1,2,17,8,10,73,89,82,82,72.56,4,2256,Male,b35db31e1ae3a04f2df6bbf2dec6eb07,side,2,4
1,2,18,60,55,91,56,55,55,36,5,2247,Male,b35db31e1ae3a04f2df6bbf2dec6eb07,same,4,4
1,2,19,67,64,64,53,55,28,37.11,6,1896,Male,b35db31e1ae3a04f2df6bbf2dec6eb07,side,4,3
1,2,20,61,64,10,90,82,91,82.98,4,2581,Male,b35db31e1ae3a04f2df6bbf2dec6eb07,side,3,4
1,2,21,97,91,64,15,19,46,74.22,3,2857,Male,b35db31e1ae3a04f2df6bbf2dec6eb07,cross,4,1
1,2,22,96,91,55,55,55,46,37.11,5,2376,Male,b35db31e1ae3a04f2df6bbf2dec6eb07,side,4,3
1,2,23,97,91,64,78,73,73,20.12,6,1813,Male,b35db31e1ae3a04f2df6bbf2dec6eb07,same,4,4
1,2,24,44,46,37,78,73,73,45,5,2542,Male,b35db31e1ae3a04f2df6bbf2dec6eb07,cross,1,4
1,2,25,66,64,55,80,73,91,37.11,4,2617,Male,b35db31e1ae3a04f2df6bbf2dec6eb07,same,4,4
1,2,26,42,46,19,99,91,82,77.42,3,1726,Male,b35db31e1ae3a04f2df6bbf2dec6eb07,cross,1,4
1,2,27,40,37,91,91,91,10,97.35,1,1870,Male,b35db31e1ae3a04f2df6bbf2dec6eb07,cross,2,3
1,2,28,100,91,91,98,91,73,18,8,2272,Male,b35db31e1ae3a04f2df6bbf2dec6eb07,same,4,4
1,2,29,35,37,46,34,37,37,9,7,1971,Male,b35db31e1ae3a04f2df6bbf2dec6eb07,same,1,1
1,2,30,47,46,64,28,28,73,20.12,8,2312,Male,b35db31e1ae3a04f2df6bbf2dec6eb07,same,2,2
1,2,31,24,28,37,40,37,91,54.74,5,2225,Male,b35db31e1ae3a04f2df6bbf2dec6eb07,side,1,2
1,2,32,64,64,37,21,28,10,45,5,2562,Male,b35db31e1ae3a04f2df6bbf2dec6eb07,side,3,1
1,2,33,17,19,64,6,10,55,12.73,7,1900,Male,b35db31e1ae3a04f2df6bbf2dec6eb07,same,2,2
1,2,34,63,64,28,99,91,82,60.37,4,2238,Male,b35db31e1ae3a04f2df6bbf2dec6eb07,side,3,4
1,2,35,33,37,28,43,46,28,9,8,2047,Male,b35db31e1ae3a04f2df6bbf2dec6eb07,same,1,1
1,2,36,75,73,46,80,73,91,45,6,1809,Male,b35db31e1ae3a04f2df6bbf2dec6eb07,side,3,4
1,2,37,88,82,73,2,10,19,90,2,2504,Male,b35db31e1ae3a04f2df6bbf2dec6eb07,cross,4,1
1,2,38,50,46,91,26,28,55,40.25,3,1725,Male,b35db31e1ae3a04f2df6bbf2dec6eb07,same,2,2
1,2,39,24,28,37,76,73,55,48.47,2,1728,Male,b35db31e1ae3a04f2df6bbf2dec6eb07,cross,1,4
1,2,40,90,82,91,57,55,64,38.18,5,2051,Male,b35db31e1ae3a04f2df6bbf2dec6eb07,same,4,4
1,2,41,5,10,46,95,91,46,81,4,2239,Male,b35db31e1ae3a04f2df6bbf2dec6eb07,side,1,3
1,2,42,95,91,46,93,91,28,18,6,1926,Male,b35db31e1ae3a04f2df6bbf2dec6eb07,same,3,3
1,2,43,64,64,37,54,55,37,9,7,1937,Male,b35db31e1ae3a04f2df6bbf2dec6eb07,same,3,3
1,2,44,82,82,19,13,19,28,63.64,5,1766,Male,b35db31e1ae3a04f2df6bbf2dec6eb07,side,3,1
1,2,45,55,55,46,38,37,73,32.45,4,1647,Male,b35db31e1ae3a04f2df6bbf2dec6eb07,cross,3,2
1,2,46,51,55,10,28,28,73,68.54,3,1540,Male,b35db31e1ae3a04f2df6bbf2dec6eb07,cross,3,2
1,2,47,16,19,55,87,82,64,63.64,2,1432,Male,b35db31e1ae3a04f2df6bbf2dec6eb07,side,2,4
1,2,48,1,10,10,24,28,37,32.45,5,1560,Male,b35db31e1ae3a04f2df6bbf2dec6eb07,same,1,1
1,2,49,92,91,19,54,55,37,40.25,4,1333,Male,b35db31e1ae3a04f2df6bbf2dec6eb07,same,3,3
1,2,50,48,46,73,79,73,82,28.46,5,1819,Male,b35db31e1ae3a04f2df6bbf2dec6eb07,side,2,4
1,2,51,30,28,91,39,37,82,12.73,8,1848,Male,b35db31e1ae3a04f2df6bbf2dec6eb07,same,2,2
1,2,52,10,10,91,48,46,73,40.25,6,1376,Male,b35db31e1ae3a04f2df6bbf2dec6eb07,same,2,2
1,2,53,82,82,19,52,55,19,27,8,1681,Male,b35db31e1ae3a04f2df6bbf2dec6eb07,same,3,3
1,2,54,40,37,91,1,10,10,85.38,5,1501,Male,b35db31e1ae3a04f2df6bbf2dec6eb07,side,2,1
1,2,55,13,19,28,45,46,46,32.45,5,1588,Male,b35db31e1ae3a04f2df6bbf2dec6eb07,same,1,1
1,2,56,93,91,28,61,64,10,32.45,7,1768,Male,b35db31e1ae3a04f2df6bbf2dec6eb07,same,3,3
1,2,57,82,82,19,1,10,10,72.56,4,2121,Male,b35db31e1ae3a04f2df6bbf2dec6eb07,side,3,1
1,2,58,1,10,10,56,55,55,63.64,4,1802,Male,b35db31e1ae3a04f2df6bbf2dec6eb07,cross,1,4
1,2,59,84,82,37,17,19,64,68.54,3,1861,Male,b35db31e1ae3a04f2df6bbf2dec6eb07,cross,3,2
1,2,60,44,46,37,38,37,73,37.11,5,1602,Male,b35db31e1ae3a04f2df6bbf2dec6eb07,side,1,2
1,2,61,63,64,28,88,82,73,48.47,4,1719,Male,b35db31e1ae3a04f2df6bbf2dec6eb07,side,3,4
1,2,62,60,55,91,9,10,82,45.89,3,1746,Male,b35db31e1ae3a04f2df6bbf2dec6eb07,side,4,2
1,2,63,19,19,82,97,91,64,74.22,2,1737,Male,b35db31e1ae3a04f2df6bbf2dec6eb07,side,2,4
1,2,64,1,10,10,36,37,55,52.48,2,2625,Male,b35db31e1ae3a04f2df6bbf2dec6eb07,side,1,2
1,2,65,34,37,37,45,46,46,12.73,5,2433,Male,b35db31e1ae3a04f2df6bbf2dec6eb07,same,1,1
1,2,66,70,64,91,42,46,19,74.22,4,1323,Male,b35db31e1ae3a04f2df6bbf2dec6eb07,cross,4,1
1,2,67,73,73,28,90,82,91,63.64,4,1612,Male,b35db31e1ae3a04f2df6bbf2dec6eb07,side,3,4
1,2,68,32,37,19,84,82,37,48.47,6,1617,Male,b35db31e1ae3a04f2df6bbf2dec6eb07,side,1,3
1,2,69,26,28,55,65,64,46,37.11,6,1860,Male,b35db31e1ae3a04f2df6bbf2dec6eb07,cross,2,3
1,2,70,95,91,46,52,55,19,45,5,1660,Male,b35db31e1ae3a04f2df6bbf2dec6eb07,same,3,3
1,2,71,74,73,37,51,55,10,32.45,6,1602,Male,b35db31e1ae3a04f2df6bbf2dec6eb07,same,3,3
1,2,72,12,19,19,82,82,19,63,6,2220,Male,b35db31e1ae3a04f2df6bbf2dec6eb07,side,1,3
1,2,73,2,10,19,21,28,10,20.12,7,1836,Male,b35db31e1ae3a04f2df6bbf2dec6eb07,same,1,1
1,2,74,1,10,10,6,10,55,45,6,1673,Male,b35db31e1ae3a04f2df6bbf2dec6eb07,side,1,2
1,2,75,73,73,28,33,37,28,36,6,2032,Male,b35db31e1ae3a04f2df6bbf2dec6eb07,side,3,1
1,2,76,48,46,73,28,28,73,18,7,1994,Male,b35db31e1ae3a04f2df6bbf2dec6eb07,same,2,2
1,2,77,16,19,55,21,28,10,45.89,5,2055,Male,b35db31e1ae3a04f2df6bbf2dec6eb07,side,2,1
1,2,78,80,73,91,26,28,55,57.63,4,1814,Male,b35db31e1ae3a04f2df6bbf2dec6eb07,side,4,2
1,2,79,84,82,37,90,82,91,54,4,1551,Male,b35db31e1ae3a04f2df6bbf2dec6eb07,side,3,4
1,2,80,11,19,10,48,46,73,68.54,3,1796,Male,b35db31e1ae3a04f2df6bbf2dec6eb07,side,1,2
1,2,81,88,82,73,38,37,73,45,4,1479,Male,b35db31e1ae3a04f2df6bbf2dec6eb07,side,4,2
1,2,82,4,10,37,41,46,10,45,5,1956,Male,b35db31e1ae3a04f2df6bbf2dec6eb07,same,1,1
1,2,83,29,28,82,79,73,82,45,5,1988,Male,b35db31e1ae3a04f2df6bbf2dec6eb07,side,2,4
1,2,84,55,55,46,95,91,46,36,5,1943,Male,b35db31e1ae3a04f2df6bbf2dec6eb07,same,3,3
1,2,85,33,37,28,1,10,10,32.45,6,1527,Male,b35db31e1ae3a04f2df6bbf2dec6eb07,same,1,1
1,2,86,85,82,46,88,82,73,27,7,1364,Male,b35db31e1ae3a04f2df6bbf2dec6eb07,side,3,4
1,2,87,71,73,10,81,82,10,9,8,1897,Male,b35db31e1ae3a04f2df6bbf2dec6eb07,same,3,3
1,2,88,68,64,73,59,55,82,12.73,8,1420,Male,b35db31e1ae3a04f2df6bbf2dec6eb07,same,4,4
1,2,89,45,46,46,53,55,28,20.12,7,1432,Male,b35db31e1ae3a04f2df6bbf2dec6eb07,side,1,3
1,2,90,45,46,46,15,19,46,27,6,2383,Male,b35db31e1ae3a04f2df6bbf2dec6eb07,same,1,1
1,2,91,16,19,55,25,28,46,12.73,7,2587,Male,b35db31e1ae3a04f2df6bbf2dec6eb07,side,2,1
1,2,92,46,46,55,7,10,64,37.11,6,2291,Male,b35db31e1ae3a04f2df6bbf2dec6eb07,same,2,2
1,2,93,18,19,73,37,37,64,20.12,7,2254,Male,b35db31e1ae3a04f2df6bbf2dec6eb07,same,2,2
1,2,94,10,10,91,16,19,55,37.11,6,1627,Male,b35db31e1ae3a04f2df6bbf2dec6eb07,same,2,2
1,2,95,33,37,28,18,19,73,48.47,4,1872,Male,b35db31e1ae3a04f2df6bbf2dec6eb07,side,1,2
1,2,96,68,64,73,27,28,64,37.11,5,2368,Male,b35db31e1ae3a04f2df6bbf2dec6eb07,side,4,2
1,2,97,95,91,46,16,19,55,72.56,3,2164,Male,b35db31e1ae3a04f2df6bbf2dec6eb07,cross,3,2
1,2,98,94,91,37,25,28,46,63.64,4,2313,Male,b35db31e1ae3a04f2df6bbf2dec6eb07,side,3,1
1,2,99,88,82,73,15,19,46,68.54,2,2404,Male,b35db31e1ae3a04f2df6bbf2dec6eb07,cross,4,1
4,1,0,8,10,73,43,46,28,57.63,8,4079,Female,7bbf712e42b98ee4d03af551e8ff1282,side,2,1
4,1,1,98,91,73,92,91,19,54,8,1463,Female,7bbf712e42b98ee4d03af551e8ff1282,side,4,3
4,1,2,59,55,82,63,64,28,54.74,8,1039,Female,7bbf712e42b98ee4d03af551e8ff1282,side,4,3
4,1,3,23,28,28,96,91,55,68.54,1,4762,Female,7bbf712e42b98ee4d03af551e8ff1282,cross,1,4
4,1,4,24,28,37,91,91,10,68.54,1,1120,Female,7bbf712e42b98ee4d03af551e8ff1282,side,1,3
4,1,5,80,73,91,36,37,55,50.91,8,6102,Female,7bbf712e42b98ee4d03af551e8ff1282,side,4,2
4,1,6,14,19,37,27,28,64,28.46,8,1857,Female,7bbf712e42b98ee4d03af551e8ff1282,side,1,2
4,1,7,6,10,55,83,82,28,76.9,1,1256,Female,7bbf712e42b98ee4d03af551e8ff1282,cross,2,3
4,1,8,95,91,46,43,46,28,48.47,1,1237,Female,7bbf712e42b98ee4d03af551e8ff1282,side,3,1
4,1,9,50,46,91,46,46,55,36,8,1437,Female,7bbf712e42b98ee4d03af551e8ff1282,same,2,2
4,1,10,55,55,46,95,91,46,36,1,4527,Female,7bbf712e42b98ee4d03af551e8ff1282,same,3,3
4,1,11,42,46,19,15,19,46,38.18,8,2739,Female,7bbf712e42b98ee4d03af551e8ff1282,same,1,1
4,1,12,85,82,46,61,64,10,40.25,8,3166,Female,7bbf712e42b98ee4d03af551e8ff1282,same,3,3
4,1,13,30,28,91,7,10,64,32.45,8,1019,Female,7bbf712e42b98ee4d03af551e8ff1282,same,2,2
4,1,14,65,64,46,95,91,46,27,8,1068,Female,7bbf712e42b98ee4d03af551e8ff1282,same,3,3
4,1,15,5,10,46,45,46,46,36,8,2522,Female,7bbf712e42b98ee4d03af551e8ff1282,same,1,1
4,1,16,59,55,82,13,19,28,64.9,8,3569,Female,7bbf712e42b98ee4d03af551e8ff1282,cross,4,1
4,1,17,50,46,91,59,55,82,12.73,8,1390,Female,7bbf712e42b98ee4d03af551e8ff1282,side,2,4
4,1,18,35,37,46,63,64,28,32.45,8,2030,Female,7bbf712e42b98ee4d03af551e8ff1282,side,1,3
4,1,19,84,82,37,48,46,73,50.91,1,1090,Female,7bbf712e42b98ee4d03af551e8ff1282,cross,3,2
4,1,20,33,37,28,71,73,10,40.25,1,1205,Female,7bbf712e42b98ee4d03af551e8ff1282,side,1,3
4,1,21,39,37,82,45,46,46,37.11,8,1124,Female,7bbf712e42b98ee4d03af551e8ff1282,side,2,1
4,1,22,69,64,82,2,10,19,82.98,8,4373,Female,7bbf712e42b98ee4d03af551e8ff1282,cross,4,1
4,1,23,90,82,91,98,91,73,20.12,8,2135,Female,7bbf712e42b98ee4d03af551e8ff1282,same,4,4
4,1,24,58,55,73,91,91,10,72.56,1,2317,Female,7bbf712e42b98ee4d03af551e8ff1282,side,4,3
4,1,25,39,37,82,46,46,55,28.46,8,824,Female,7bbf712e42b98ee4d03af551e8ff1282,same,2,2
4,1,26,18,19,73,21,28,10,63.64,8,953,Female,7bbf712e42b98ee4d03af551e8ff1282,side,2,1
4,1,27,91,91,10,85,82,46,37.11,8,1108,Female,7bbf712e42b98ee4d03af551e8ff1282,same,3,3
4,1,28,45,46,46,33,37,28,20.12,8,626,Female,7bbf712e42b98ee4d03af551e8ff1282,same,1,1
4,1,29,94,91,37,19,19,82,84.91,1,943,Female,7bbf712e42b98ee4d03af551e8ff1282,cross,3,2
4,1,30,67,64,64,95,91,46,32.45,1,1756,Female,7bbf712e42b98ee4d03af551e8ff1282,side,4,3
4,1,31,15,19,46,21,28,10,37.11,8,644,Female,7bbf712e42b98ee4d03af551e8ff1282,same,1,1
4,1,32,91,91,10,80,73,91,82.98,8,1041,Female,7bbf712e42b98ee4d03af551e8ff1282,side,3,4
4,1,33,30,28,91,16,19,55,37.11,8,781,Female,7bbf712e42b98ee4d03af551e8ff1282,same,2,2
4,1,34,67,64,64,83,82,28,40.25,8,1441,Female,7bbf712e42b98ee4d03af551e8ff1282,side,4,3
4,1,35,85,82,46,71,73,10,37.11,8,639,Female,7bbf712e42b98ee4d03af551e8ff1282,same,3,3
4,1,36,62,64,19,33,37,28,28.46,8,2616,Female,7bbf712e42b98ee4d03af551e8ff1282,side,3,1
4,1,37,6,10,55,57,55,64,45.89,8,3016,Female,7bbf712e42b98ee4d03af551e8ff1282,side,2,4
4,1,38,40,37,91,62,64,19,76.9,8,1179,Female,7bbf712e42b98ee4d03af551e8ff1282,cross,2,3
4,1,39,79,73,82,43,46,28,60.37,8,1483,Female,7bbf712e42b98ee4d03af551e8ff1282,cross,4,1
4,1,40,84,82,37,99,91,82,45.89,8,1039,Female,7bbf712e42b98ee4d03af551e8ff1282,side,3,4
4,1,41,14,19,37,91,91,10,76.9,1,710,Female,7bbf712e42b98ee4d03af551e8ff1282,side,1,3
4,1,42,99,91,82,70,64,91,28.46,1,1044,Female,7bbf712e42b98ee4d03af551e8ff1282,same,4,4
4,1,43,4,10,37,54,55,37,45,8,1608,Female,7bbf712e42b98ee4d03af551e8ff1282,side,1,3
4,1,44,59,55,82,96,91,55,45,1,704,Female,7bbf712e42b98ee4d03af551e8ff1282,same,4,4
4,1,45,7,10,64,57,55,64,45,8,1308,Female,7bbf712e42b98ee4d03af551e8ff1282,side,2,4
4,1,46,92,91,19,84,82,37,20.12,1,800,Female,7bbf712e42b98ee4d03af551e8ff1282,same,3,3
4,1,47,52,55,19,54,55,37,18,8,1041,Female,7bbf712e42b98ee4d03af551e8ff1282,same,3,3
4,1,48,39,37,82,66,64,55,38.18,8,926,Female,7bbf712e42b98ee4d03af551e8ff1282,side,2,4
4,1,49,24,28,37,85,82,46,54.74,1,690,Female,7bbf712e42b98ee4d03af551e8ff1282,side,1,3
4,1,50,98,91,73,27,28,64,63.64,1,857,Female,7bbf712e42b98ee4d03af551e8ff1282,side,4,2
4,1,51,75,73,46,7,10,64,65.52,8,1261,Female,7bbf712e42b98ee4d03af551e8ff1282,cross,3,2
4,1,52,50,46,91,16,19,55,45,8,725,Female,7bbf712e42b98ee4d03af551e8ff1282,same,2,2
4,1,53,92,91,19,73,73,28,20.12,8,1471,Female,7bbf712e42b98ee4d03af551e8ff1282,same,3,3
4,1,54,30,28,91,11,19,10,81.5,8,708,Female,7bbf712e42b98ee4d03af551e8ff1282,side,2,1
4,1,55,39,37,82,1,10,10,76.9,8,569,Female,7bbf712e42b98ee4d03af551e8ff1282,side,2,1
4,1,56,88,82,73,81,82,10,63,8,1134,Female,7bbf712e42b98ee4d03af551e8ff1282,side,4,3
4,1,57,29,28,82,15,19,46,37.11,8,848,Female,7bbf712e42b98ee4d03af551e8ff1282,side,2,1
4,1,58,31,37,10,15,19,46,40.25,8,699,Female,7bbf712e42b98ee4d03af551e8ff1282,same,1,1
4,1,59,15,19,46,41,46,10,45,8,724,Female,7bbf712e42b98ee4d03af551e8ff1282,same,1,1
4,1,60,74,73,37,50,46,91,60.37,1,2319,Female,7bbf712e42b98ee4d03af551e8ff1282,cross,3,2
4,1,61,19,19,82,7,10,64,20.12,8,521,Female,7bbf712e42b98ee4d03af551e8ff1282,same,2,2
4,1,62,62,64,19,5,10,46,60.37,8,833,Female,7bbf712e42b98ee4d03af551e8ff1282,side,3,1
4,1,63,36,37,55,85,82,46,45.89,1,595,Female,7bbf712e42b98ee4d03af551e8ff1282,cross,2,3
4,1,64,98,91,73,17,19,64,72.56,1,914,Female,7bbf712e42b98ee4d03af551e8ff1282,side,4,2
4,1,65,45,46,46,87,82,64,40.25,1,2209,Female,7bbf712e42b98ee4d03af551e8ff1282,cross,1,4
4,1,66,57,55,64,77,73,64,18,8,1684,Female,7bbf712e42b98ee4d03af551e8ff1282,same,4,4
4,1,67,35,37,46,50,46,91,45.89,8,651,Female,7bbf712e42b98ee4d03af551e8ff1282,side,1,2
4,1,68,60,55,91,32,37,19,74.22,8,1638,Female,7bbf712e42b98ee4d03af551e8ff1282,cross,4,1
4,1,69,8,10,73,63,64,28,70.29,8,1375,Female,7bbf712e42b98ee4d03af551e8ff1282,cross,2,3
4,1,70,17,19,64,78,73,73,54.74,8,1111,Female,7bbf712e42b98ee4d03af551e8ff1282,side,2,4
4,1,71,27,28,64,48,46,73,20.12,8,585,Female,7bbf712e42b98ee4d03af551e8ff1282,same,2,2
4,1,72,84,82,37,46,46,55,40.25,1,1204,Female,7bbf712e42b98ee4d03af551e8ff1282,cross,3,2
4,1,73,95,91,46,84,82,37,12.73,8,939,Female,7bbf712e42b98ee4d03af551e8ff1282,same,3,3
4,1,74,38,37,73,10,10,91,32.45,8,913,Female,7bbf712e42b98ee4d03af551e8ff1282,same,2,2
4,1,75,100,91,91,59,55,82,37.11,1,1098,Female,7bbf712e42b98ee4d03af551e8ff1282,same,4,4
4,1,76,34,37,37,14,19,37,18,8,828,Female,7bbf712e42b98ee4d03af551e8ff1282,same,1,1
4,1,77,38,37,73,19,19,82,20.12,8,483,Female,7bbf712e42b98ee4d03af551e8ff1282,same,2,2
4,1,78,14,19,37,9,10,82,45.89,8,677,Female,7bbf712e42b98ee4d03af551e8ff1282,side,1,2
4,1,79,58,55,73,59,55,82,9,8,2111,Female,7bbf712e42b98ee4d03af551e8ff1282,same,4,4
4,1,80,28,28,73,26,28,55,18,8,941,Female,7bbf712e42b98ee4d03af551e8ff1282,same,2,2
4,1,81,79,73,82,1,10,10,95.67,8,1734,Female,7bbf712e42b98ee4d03af551e8ff1282,cross,4,1
4,1,82,5,10,46,15,19,46,9,8,746,Female,7bbf712e42b98ee4d03af551e8ff1282,same,1,1
4,1,83,31,37,10,96,91,55,70.29,1,1080,Female,7bbf712e42b98ee4d03af551e8ff1282,cross,1,4
4,1,84,97,91,64,6,10,55,81.5,1,919,Female,7bbf712e42b98ee4d03af551e8ff1282,side,4,2
4,1,85,89,82,82,90,82,91,9,8,1168,Female,7bbf712e42b98ee4d03af551e8ff1282,same,4,4
4,1,86,69,64,82,46,46,55,32.45,8,1008,Female,7bbf712e42b98ee4d03af551e8ff1282,side,4,2
4,1,87,34,37,37,41,46,10,28.46,8,1932,Female,7bbf712e42b98ee4d03af551e8ff1282,same,1,1
4,1,88,42,46,19,8,10,73,64.9,8,734,Female,7bbf712e42b98ee4d03af551e8ff1282,side,1,2
4,1,89,13,19,28,12,19,19,9,8,774,Female,7bbf712e42b98ee4d03af551e8ff1282,same,1,1
4,1,90,90,82,91,96,91,55,37.11,8,873,Female,7bbf712e42b98ee4d03af551e8ff1282,same,4,4
4,1,91,80,73,91,76,73,55,36,8,998,Female,7bbf712e42b98ee4d03af551e8ff1282,same,4,4
4,1,92,81,82,10,95,91,46,37.11,8,532,Female,7bbf712e42b98ee4d03af551e8ff1282,same,3,3
4,1,93,15,19,46,97,91,64,74.22,1,626,Female,7bbf712e42b98ee4d03af551e8ff1282,cross,1,4
4,1,94,58,55,73,25,28,46,38.18,8,666,Female,7bbf712e42b98ee4d03af551e8ff1282,cross,4,1
4,1,95,95,91,46,12,19,19,76.9,1,602,Female,7bbf712e42b98ee4d03af551e8ff1282,side,3,1
4,1,96,100,91,91,58,55,73,40.25,1,815,Female,7bbf712e42b98ee4d03af551e8ff1282,same,4,4
4,1,97,67,64,64,54,55,37,28.46,8,896,Female,7bbf712e42b98ee4d03af551e8ff1282,side,4,3
4,1,98,75,73,46,90,82,91,45.89,8,886,Female,7bbf712e42b98ee4d03af551e8ff1282,side,3,4
4,1,99,7,10,64,92,91,19,92.66,1,713,Female,7bbf712e42b98ee4d03af551e8ff1282,cross,2,3
4,2,0,81,82,10,95,91,46,37.11,8,1907,Female,7bbf712e42b98ee4d03af551e8ff1282,same,3,3
4,2,1,59,55,82,100,91,91,37.11,8,2670,Female,7bbf712e42b98ee4d03af551e8ff1282,same,4,4
4,2,2,33,37,28,71,73,10,40.25,1,1430,Female,7bbf712e42b98ee4d03af551e8ff1282,side,1,3
4,2,3,30,28,91,16,19,55,37.11,8,1013,Female,7bbf712e42b98ee4d03af551e8ff1282,same,2,2
4,2,4,59,55,82,63,64,28,54.74,8,1917,Female,7bbf712e42b98ee4d03af551e8ff1282,side,4,3
4,2,5,24,28,37,85,82,46,54.74,1,980,Female,7bbf712e42b98ee4d03af551e8ff1282,side,1,3
4,2,6,80,73,91,91,91,10,82.98,8,988,Female,7bbf712e42b98ee4d03af551e8ff1282,side,4,3
4,2,7,59,55,82,96,91,55,45,8,991,Female,7bbf712e42b98ee4d03af551e8ff1282,same,4,4
4,2,8,99,91,82,84,82,37,45.89,8,907,Female,7bbf712e42b98ee4d03af551e8ff1282,side,4,3
4,2,9,46,46,55,69,64,82,32.45,1,2021,Female,7bbf712e42b98ee4d03af551e8ff1282,side,2,4
4,2,10,41,46,10,34,37,37,28.46,8,911,Female,7bbf712e42b98ee4d03af551e8ff1282,same,1,1
4,2,11,46,46,55,84,82,37,40.25,1,833,Female,7bbf712e42b98ee4d03af551e8ff1282,cross,2,3
4,2,12,67,64,64,54,55,37,28.46,8,875,Female,7bbf712e42b98ee4d03af551e8ff1282,side,4,3
4,2,13,18,19,73,21,28,10,63.64,8,756,Female,7bbf712e42b98ee4d03af551e8ff1282,side,2,1
4,2,14,97,91,64,15,19,46,74.22,1,761,Female,7bbf712e42b98ee4d03af551e8ff1282,cross,4,1
4,2,15,80,73,91,36,37,55,50.91,8,2613,Female,7bbf712e42b98ee4d03af551e8ff1282,side,4,2
4,2,16,50,46,91,35,37,46,45.89,8,1395,Female,7bbf712e42b98ee4d03af551e8ff1282,side,2,1
4,2,17,15,19,46,29,28,82,37.11,8,642,Female,7bbf712e42b98ee4d03af551e8ff1282,side,1,2
4,2,18,54,55,37,4,10,37,45,8,805,Female,7bbf712e42b98ee4d03af551e8ff1282,side,3,1
4,2,19,50,46,91,16,19,55,45,8,932,Female,7bbf712e42b98ee4d03af551e8ff1282,same,2,2
4,2,20,17,19,64,78,73,73,54.74,1,940,Female,7bbf712e42b98ee4d03af551e8ff1282,side,2,4
4,2,21,70,64,91,99,91,82,28.46,8,1118,Female,7bbf712e42b98ee4d03af551e8ff1282,same,4,4
4,2,22,43,46,28,95,91,46,48.47,1,726,Female,7bbf712e42b98ee4d03af551e8ff1282,side,1,3
4,2,23,83,82,28,6,10,55,76.9,1,657,Female,7bbf712e42b98ee4d03af551e8ff1282,cross,3,2
4,2,24,89,82,82,90,82,91,9,8,803,Female,7bbf712e42b98ee4d03af551e8ff1282,same,4,4
4,2,25,1,10,10,79,73,82,95.67,1,848,Female,7bbf712e42b98ee4d03af551e8ff1282,cross,1,4
4,2,26,85,82,46,61,64,10,40.25,8,1842,Female,7bbf712e42b98ee4d03af551e8ff1282,same,3,3
4,2,27,97,91,64,6,10,55,81.5,1,687,Female,7bbf712e42b98ee4d03af551e8ff1282,side,4,2
4,2,28,15,19,46,21,28,10,37.11,8,629,Female,7bbf712e42b98ee4d03af551e8ff1282,same,1,1
4,2,29,98,91,73,17,19,64,72.56,1,740,Female,7bbf712e42b98ee4d03af551e8ff1282,side,4,2
4,2,30,75,73,46,90,82,91,45.89,8,793,Female,7bbf712e42b98ee4d03af551e8ff1282,side,3,4
4,2,31,57,55,64,77,73,64,18,8,1003,Female,7bbf712e42b98ee4d03af551e8ff1282,same,4,4
4,2,32,5,10,46,62,64,19,60.37,1,575,Female,7bbf712e42b98ee4d03af551e8ff1282,side,1,3
4,2,33,38,37,73,19,19,82,20.12,8,1024,Female,7bbf712e42b98ee4d03af551e8ff1282,same,2,2
4,2,34,63,64,28,35,37,46,32.45,1,802,Female,7bbf712e42b98ee4d03af551e8ff1282,side,3,1
4,2,35,39,37,82,45,46,46,37.11,8,714,Female,7bbf712e42b98ee4d03af551e8ff1282,side,2,1
4,2,36,88,82,73,81,82,10,63,8,875,Female,7bbf712e42b98ee4d03af551e8ff1282,side,4,3
4,2,37,48,46,73,27,28,64,20.12,8,974,Female,7bbf712e42b98ee4d03af551e8ff1282,same,2,2
4,2,38,71,73,10,85,82,46,37.11,8,702,Female,7bbf712e42b98ee4d03af551e8ff1282,same,3,3
4,2,39,55,55,46,95,91,46,36,1,1060,Female,7bbf712e42b98ee4d03af551e8ff1282,same,3,3
4,2,40,39,37,82,66,64,55,38.18,8,1604,Female,7bbf712e42b98ee4d03af551e8ff1282,side,2,4
4,2,41,83,82,28,67,64,64,40.25,8,2004,Female,7bbf712e42b98ee4d03af551e8ff1282,side,3,4
4,2,42,6,10,55,57,55,64,45.89,1,621,Female,7bbf712e42b98ee4d03af551e8ff1282,side,2,4
4,2,43,98,91,73,92,91,19,54,8,834,Female,7bbf712e42b98ee4d03af551e8ff1282,side,4,3
4,2,44,95,91,46,65,64,46,27,1,1754,Female,7bbf712e42b98ee4d03af551e8ff1282,same,3,3
4,2,45,19,19,82,94,91,37,84.91,1,681,Female,7bbf712e42b98ee4d03af551e8ff1282,cross,2,3
4,2,46,60,55,91,32,37,19,74.22,8,2806,Female,7bbf712e42b98ee4d03af551e8ff1282,cross,4,1
4,2,47,48,46,73,84,82,37,50.91,1,1343,Female,7bbf712e42b98ee4d03af551e8ff1282,cross,2,3
4,2,48,11,19,10,30,28,91,81.5,8,842,Female,7bbf712e42b98ee4d03af551e8ff1282,side,1,2
4,2,49,92,91,19,73,73,28,20.12,8,734,Female,7bbf712e42b98ee4d03af551e8ff1282,same,3,3
4,2,50,58,55,73,91,91,10,72.56,1,826,Female,7bbf712e42b98ee4d03af551e8ff1282,side,4,3
4,2,51,76,73,55,80,73,91,36,8,732,Female,7bbf712e42b98ee4d03af551e8ff1282,same,4,4
4,2,52,8,10,73,63,64,28,70.29,1,1173,Female,7bbf712e42b98ee4d03af551e8ff1282,cross,2,3
4,2,53,9,10,82,14,19,37,45.89,8,731,Female,7bbf712e42b98ee4d03af551e8ff1282,side,2,1
4,2,54,91,91,10,24,28,37,68.54,1,625,Female,7bbf712e42b98ee4d03af551e8ff1282,side,3,1
4,2,55,91,91,10,14,19,37,76.9,1,566,Female,7bbf712e42b98ee4d03af551e8ff1282,side,3,1
4,2,56,87,82,64,45,46,46,40.25,1,606,Female,7bbf712e42b98ee4d03af551e8ff1282,cross,4,1
4,2,57,98,91,73,90,82,91,20.12,8,781,Female,7bbf712e42b98ee4d03af551e8ff1282,same,4,4
4,2,58,92,91,19,84,82,37,20.12,8,584,Female,7bbf712e42b98ee4d03af551e8ff1282,same,3,3
4,2,59,50,46,91,46,46,55,36,8,1050,Female,7bbf712e42b98ee4d03af551e8ff1282,same,2,2
4,2,60,45,46,46,5,10,46,36,8,798,Female,7bbf712e42b98ee4d03af551e8ff1282,same,1,1
4,2,61,79,73,82,43,46,28,60.37,8,1720,Female,7bbf712e42b98ee4d03af551e8ff1282,cross,4,1
4,2,62,15,19,46,42,46,19,38.18,8,1726,Female,7bbf712e42b98ee4d03af551e8ff1282,same,1,1
4,2,63,27,28,64,98,91,73,63.64,1,509,Female,7bbf712e42b98ee4d03af551e8ff1282,side,2,4
4,2,64,52,55,19,54,55,37,18,8,808,Female,7bbf712e42b98ee4d03af551e8ff1282,same,3,3
4,2,65,19,19,82,7,10,64,20.12,8,544,Female,7bbf712e42b98ee4d03af551e8ff1282,same,2,2
4,2,66,33,37,28,45,46,46,20.12,8,509,Female,7bbf712e42b98ee4d03af551e8ff1282,same,1,1
4,2,67,59,55,82,50,46,91,12.73,8,546,Female,7bbf712e42b98ee4d03af551e8ff1282,side,4,2
4,2,68,57,55,64,7,10,64,45,8,1160,Female,7bbf712e42b98ee4d03af551e8ff1282,side,4,2
4,2,69,38,37,73,10,10,91,32.45,8,657,Female,7bbf712e42b98ee4d03af551e8ff1282,same,2,2
4,2,70,34,37,37,14,19,37,18,8,516,Female,7bbf712e42b98ee4d03af551e8ff1282,same,1,1
4,2,71,23,28,28,96,91,55,68.54,1,551,Female,7bbf712e42b98ee4d03af551e8ff1282,cross,1,4
4,2,72,28,28,73,26,28,55,18,8,587,Female,7bbf712e42b98ee4d03af551e8ff1282,same,2,2
4,2,73,30,28,91,7,10,64,32.45,8,820,Female,7bbf712e42b98ee4d03af551e8ff1282,same,2,2
4,2,74,85,82,46,36,37,55,45.89,1,581,Female,7bbf712e42b98ee4d03af551e8ff1282,cross,3,2
4,2,75,1,10,10,39,37,82,76.9,8,1325,Female,7bbf712e42b98ee4d03af551e8ff1282,side,1,2
4,2,76,39,37,82,46,46,55,28.46,8,716,Female,7bbf712e42b98ee4d03af551e8ff1282,same,2,2
4,2,77,8,10,73,42,46,19,64.9,8,477,Female,7bbf712e42b98ee4d03af551e8ff1282,side,2,1
4,2,78,95,91,46,67,64,64,32.45,1,572,Female,7bbf712e42b98ee4d03af551e8ff1282,side,3,4
4,2,79,12,19,19,13,19,28,9,8,574,Female,7bbf712e42b98ee4d03af551e8ff1282,same,1,1
4,2,80,8,10,73,43,46,28,57.63,8,657,Female,7bbf712e42b98ee4d03af551e8ff1282,side,2,1
4,2,81,96,91,55,90,82,91,37.11,8,715,Female,7bbf712e42b98ee4d03af551e8ff1282,same,4,4
4,2,82,13,19,28,59,55,82,64.9,8,1718,Female,7bbf712e42b98ee4d03af551e8ff1282,cross,1,4
4,2,83,62,64,19,33,37,28,28.46,8,649,Female,7bbf712e42b98ee4d03af551e8ff1282,side,3,1
4,2,84,69,64,82,2,10,19,82.98,8,527,Female,7bbf712e42b98ee4d03af551e8ff1282,cross,4,1
4,2,85,84,82,37,95,91,46,12.73,8,753,Female,7bbf712e42b98ee4d03af551e8ff1282,same,3,3
4,2,86,31,37,10,96,91,55,70.29,1,580,Female,7bbf712e42b98ee4d03af551e8ff1282,cross,1,4
4,2,87,59,55,82,58,55,73,9,8,665,Female,7bbf712e42b98ee4d03af551e8ff1282,same,4,4
4,2,88,31,37,10,15,19,46,40.25,8,623,Female,7bbf712e42b98ee4d03af551e8ff1282,same,1,1
4,2,89,91,91,10,85,82,46,37.11,8,634,Female,7bbf712e42b98ee4d03af551e8ff1282,same,3,3
4,2,90,95,91,46,12,19,19,76.9,1,682,Female,7bbf712e42b98ee4d03af551e8ff1282,side,3,1
4,2,91,50,46,91,74,73,37,60.37,1,807,Female,7bbf712e42b98ee4d03af551e8ff1282,cross,2,3
4,2,92,92,91,19,7,10,64,92.66,1,635,Female,7bbf712e42b98ee4d03af551e8ff1282,cross,3,2
4,2,93,5,10,46,15,19,46,9,8,478,Female,7bbf712e42b98ee4d03af551e8ff1282,same,1,1
4,2,94,40,37,91,62,64,19,76.9,1,707,Female,7bbf712e42b98ee4d03af551e8ff1282,cross,2,3
4,2,95,14,19,37,27,28,64,28.46,8,514,Female,7bbf712e42b98ee4d03af551e8ff1282,side,1,2
4,2,96,41,46,10,15,19,46,45,8,498,Female,7bbf712e42b98ee4d03af551e8ff1282,same,1,1
4,2,97,75,73,46,7,10,64,65.52,1,1382,Female,7bbf712e42b98ee4d03af551e8ff1282,cross,3,2
4,2,98,100,91,91,58,55,73,40.25,1,2704,Female,7bbf712e42b98ee4d03af551e8ff1282,same,4,4
4,2,99,25,28,46,58,55,73,38.18,8,1545,Female,7bbf712e42b98ee4d03af551e8ff1282,cross,1,4
4,1,0,74,73,37,68,64,73,37.11,7,2331,Male,2c46eda094feff3754af304e1ece6221,side,3,4
4,1,1,42,46,19,23,28,28,20.12,7,3158,Male,2c46eda094feff3754af304e1ece6221,same,1,1
4,1,2,89,82,82,58,55,73,28.46,7,3490,Male,2c46eda094feff3754af304e1ece6221,same,4,4
4,1,3,29,28,82,92,91,19,89.1,2,2168,Male,2c46eda094feff3754af304e1ece6221,cross,2,3
4,1,4,76,73,55,71,73,10,45,4,3464,Male,2c46eda094feff3754af304e1ece6221,side,4,3
4,1,5,59,55,82,96,91,55,45,3,2346,Male,2c46eda094feff3754af304e1ece6221,same,4,4
4,1,6,4,10,37,36,37,55,32.45,5,2962,Male,2c46eda094feff3754af304e1ece6221,side,1,2
4,1,7,98,91,73,31,37,10,82.98,1,5268,Male,2c46eda094feff3754af304e1ece6221,cross,4,1
4,1,8,57,55,64,11,19,10,64.9,4,4511,Male,2c46eda094feff3754af304e1ece6221,cross,4,1
4,1,9,56,55,55,99,91,82,45,2,2355,Male,2c46eda094feff3754af304e1ece6221,same,4,4
4,1,10,2,10,19,55,55,46,52.48,4,3369,Male,2c46eda094feff3754af304e1ece6221,side,1,3
4,1,11,28,28,73,2,10,19,56.92,4,3141,Male,2c46eda094feff3754af304e1ece6221,side,2,1
4,1,12,36,37,55,52,55,19,40.25,5,4472,Male,2c46eda094feff3754af304e1ece6221,cross,2,3
4,1,13,29,28,82,94,91,37,77.42,1,3873,Male,2c46eda094feff3754af304e1ece6221,cross,2,3
4,1,14,94,91,37,51,55,10,45,5,5204,Male,2c46eda094feff3754af304e1ece6221,same,3,3
4,1,15,14,19,37,36,37,55,25.46,7,4724,Male,2c46eda094feff3754af304e1ece6221,side,1,2
4,1,16,55,55,46,61,64,10,37.11,6,1948,Male,2c46eda094feff3754af304e1ece6221,same,3,3
4,1,17,93,91,28,52,55,19,37.11,6,3104,Male,2c46eda094feff3754af304e1ece6221,same,3,3
4,1,18,72,73,19,52,55,19,18,8,2932,Male,2c46eda094feff3754af304e1ece6221,same,3,3
4,1,19,64,64,37,54,55,37,9,8,2534,Male,2c46eda094feff3754af304e1ece6221,same,3,3
4,1,20,90,82,91,63,64,28,65.52,4,3439,Male,2c46eda094feff3754af304e1ece6221,side,4,3
4,1,21,95,91,46,43,46,28,48.47,5,2084,Male,2c46eda094feff3754af304e1ece6221,side,3,1
4,1,22,68,64,73,57,55,64,12.73,7,2119,Male,2c46eda094feff3754af304e1ece6221,same,4,4
4,1,23,41,46,10,83,82,28,40.25,6,3441,Male,2c46eda094feff3754af304e1ece6221,side,1,3
4,1,24,71,73,10,53,55,28,25.46,7,2329,Male,2c46eda094feff3754af304e1ece6221,same,3,3
4,1,25,46,46,55,29,28,82,32.45,6,2798,Male,2c46eda094feff3754af304e1ece6221,same,2,2
4,1,26,37,37,64,61,64,10,60.37,3,1809,Male,2c46eda094feff3754af304e1ece6221,cross,2,3
4,1,27,9,10,82,17,19,64,20.12,7,2439,Male,2c46eda094feff3754af304e1ece6221,same,2,2
4,1,28,19,19,82,36,37,55,32.45,5,1968,Male,2c46eda094feff3754af304e1ece6221,same,2,2
4,1,29,97,91,64,58,55,73,37.11,7,2589,Male,2c46eda094feff3754af304e1ece6221,same,4,4
4,1,30,6,10,55,49,46,82,45,5,1930,Male,2c46eda094feff3754af304e1ece6221,same,2,2
4,1,31,4,10,37,43,46,28,37.11,3,5326,Male,2c46eda094feff3754af304e1ece6221,same,1,1
4,1,32,32,37,19,13,19,28,20.12,7,2158,Male,2c46eda094feff3754af304e1ece6221,same,1,1
4,1,33,5,10,46,11,19,10,37.11,5,2069,Male,2c46eda094feff3754af304e1ece6221,same,1,1
4,1,34,40,37,91,41,46,10,81.5,3,2553,Male,2c46eda094feff3754af304e1ece6221,side,2,1
4,1,35,21,28,10,15,19,46,37.11,4,1937,Male,2c46eda094feff3754af304e1ece6221,same,1,1
4,1,36,73,73,28,54,55,37,20.12,8,2893,Male,2c46eda094feff3754af304e1ece6221,same,3,3
4,1,37,46,46,55,59,55,82,28.46,6,1730,Male,2c46eda094feff3754af304e1ece6221,side,2,4
4,1,38,78,73,73,73,73,28,45,3,2401,Male,2c46eda094feff3754af304e1ece6221,side,4,3
4,1,39,74,73,37,51,55,10,32.45,5,4783,Male,2c46eda094feff3754af304e1ece6221,same,3,3
4,1,40,70,64,91,51,55,10,81.5,2,2347,Male,2c46eda094feff3754af304e1ece6221,side,4,3
4,1,41,79,73,82,28,28,73,45.89,4,5954,Male,2c46eda094feff3754af304e1ece6221,side,4,2
4,1,42,89,82,82,90,82,91,9,7,2495,Male,2c46eda094feff3754af304e1ece6221,same,4,4
4,1,43,90,82,91,47,46,64,45,3,2592,Male,2c46eda094feff3754af304e1ece6221,side,4,2
4,1,44,38,37,73,88,82,73,45,4,3114,Male,2c46eda094feff3754af304e1ece6221,side,2,4
4,1,45,58,55,73,32,37,19,56.92,2,2034,Male,2c46eda094feff3754af304e1ece6221,cross,4,1
4,1,46,15,19,46,95,91,46,72,1,3415,Male,2c46eda094feff3754af304e1ece6221,side,1,3
4,1,47,39,37,82,49,46,82,9,7,2354,Male,2c46eda094feff3754af304e1ece6221,same,2,2
4,1,48,40,37,91,93,91,28,82.98,1,2791,Male,2c46eda094feff3754af304e1ece6221,cross,2,3
4,1,49,79,73,82,1,10,10,95.67,1,1907,Male,2c46eda094feff3754af304e1ece6221,cross,4,1
4,1,50,19,19,82,17,19,64,18,6,2164,Male,2c46eda094feff3754af304e1ece6221,same,2,2
4,1,51,25,28,46,44,46,37,20.12,6,3823,Male,2c46eda094feff3754af304e1ece6221,same,1,1
4,1,52,26,28,55,63,64,28,45,2,12922,Male,2c46eda094feff3754af304e1ece6221,cross,2,3
4,1,53,93,91,28,60,55,91,72.56,1,1993,Male,2c46eda094feff3754af304e1ece6221,side,3,4
4,1,54,27,28,64,28,28,73,9,7,2126,Male,2c46eda094feff3754af304e1ece6221,same,2,2
4,1,55,59,55,82,90,82,91,28.46,6,6396,Male,2c46eda094feff3754af304e1ece6221,same,4,4
4,1,56,52,55,19,75,73,46,32.45,5,2278,Male,2c46eda094feff3754af304e1ece6221,same,3,3
4,1,57,16,19,55,49,46,82,38.18,3,5601,Male,2c46eda094feff3754af304e1ece6221,same,2,2
4,1,58,41,46,10,25,28,46,40.25,4,1844,Male,2c46eda094feff3754af304e1ece6221,same,1,1
4,1,59,16,19,55,48,46,73,32.45,6,2738,Male,2c46eda094feff3754af304e1ece6221,same,2,2
4,1,60,27,28,64,33,37,28,37.11,4,4007,Male,2c46eda094feff3754af304e1ece6221,side,2,1
4,1,61,84,82,37,48,46,73,50.91,3,7421,Male,2c46eda094feff3754af304e1ece6221,cross,3,2
4,1,62,16,19,55,82,82,19,72.56,2,2212,Male,2c46eda094feff3754af304e1ece6221,cross,2,3
4,1,63,37,37,64,71,73,10,64.9,2,2493,Male,2c46eda094feff3754af304e1ece6221,cross,2,3
4,1,64,6,10,55,87,82,64,72.56,3,3273,Male,2c46eda094feff3754af304e1ece6221,side,2,4
4,1,65,96,91,55,70,64,91,45,5,3815,Male,2c46eda094feff3754af304e1ece6221,same,4,4
4,1,66,76,73,55,29,28,82,52.48,4,1891,Male,2c46eda094feff3754af304e1ece6221,side,4,2
4,1,67,43,46,28,72,73,19,28.46,6,2506,Male,2c46eda094feff3754af304e1ece6221,side,1,3
4,1,68,41,46,10,2,10,19,37.11,6,3667,Male,2c46eda094feff3754af304e1ece6221,same,1,1
4,1,69,76,73,55,73,73,28,27,7,1681,Male,2c46eda094feff3754af304e1ece6221,side,4,3
4,1,70,78,73,73,61,64,10,63.64,5,2191,Male,2c46eda094feff3754af304e1ece6221,side,4,3
4,1,71,62,64,19,10,10,91,90,1,3871,Male,2c46eda094feff3754af304e1ece6221,cross,3,2
4,1,72,29,28,82,32,37,19,63.64,4,2076,Male,2c46eda094feff3754af304e1ece6221,side,2,1
4,1,73,23,28,28,70,64,91,72.56,2,2022,Male,2c46eda094feff3754af304e1ece6221,cross,1,4
4,1,74,54,55,37,68,64,73,37.11,5,2192,Male,2c46eda094feff3754af304e1ece6221,side,3,4
4,1,75,4,10,37,87,82,64,76.9,1,2629,Male,2c46eda094feff3754af304e1ece6221,cross,1,4
4,1,76,18,19,73,43,46,28,52.48,2,2688,Male,2c46eda094feff3754af304e1ece6221,side,2,1
4,1,77,31,37,10,63,64,28,32.45,6,3179,Male,2c46eda094feff3754af304e1ece6221,side,1,3
4,1,78,92,91,19,11,19,10,72.56,3,2134,Male,2c46eda094feff3754af304e1ece6221,side,3,1
4,1,79,80,73,91,38,37,73,40.25,6,2153,Male,2c46eda094feff3754af304e1ece6221,side,4,2
4,1,80,80,73,91,9,10,82,63.64,4,3932,Male,2c46eda094feff3754af304e1ece6221,side,4,2
4,1,81,11,19,10,6,10,55,45.89,6,2053,Male,2c46eda094feff3754af304e1ece6221,side,1,2
4,1,82,30,28,91,15,19,46,45.89,5,2946,Male,2c46eda094feff3754af304e1ece6221,side,2,1
4,1,83,48,46,73,17,19,64,28.46,6,1970,Male,2c46eda094feff3754af304e1ece6221,same,2,2
4,1,84,44,46,37,34,37,37,9,8,2816,Male,2c46eda094feff3754af304e1ece6221,same,1,1
4,1,85,9,10,82,99,91,82,81,3,3821,Male,2c46eda094feff3754af304e1ece6221,side,2,4
4,1,86,98,91,73,59,55,82,37.11,6,2022,Male,2c46eda094feff3754af304e1ece6221,same,4,4
4,1,87,12,19,19,59,55,82,72.56,3,2948,Male,2c46eda094feff3754af304e1ece6221,cross,1,4
4,1,88,31,37,10,33,37,28,18,7,1800,Male,2c46eda094feff3754af304e1ece6221,same,1,1
4,1,89,11,19,10,9,10,82,72.56,4,2522,Male,2c46eda094feff3754af304e1ece6221,side,1,2
4,1,90,22,28,19,84,82,37,56.92,1,2315,Male,2c46eda094feff3754af304e1ece6221,side,1,3
4,1,91,63,64,28,99,91,82,60.37,2,2115,Male,2c46eda094feff3754af304e1ece6221,side,3,4
4,1,92,87,82,64,44,46,37,45,3,2325,Male,2c46eda094feff3754af304e1ece6221,cross,4,1
4,1,93,15,19,46,73,73,28,56.92,5,6296,Male,2c46eda094feff3754af304e1ece6221,side,1,3
4,1,94,35,37,46,51,55,10,40.25,6,5746,Male,2c46eda094feff3754af304e1ece6221,side,1,3
4,1,95,45,46,46,80,73,91,52.48,5,1620,Male,2c46eda094feff3754af304e1ece6221,cross,1,4
4,1,96,70,64,91,57,55,64,28.46,6,1986,Male,2c46eda094feff3754af304e1ece6221,same,4,4
4,1,97,73,73,28,83,82,28,9,8,1498,Male,2c46eda094feff3754af304e1ece6221,same,3,3
4,1,98,38,37,73,99,91,82,54.74,4,3417,Male,2c46eda094feff3754af304e1ece6221,side,2,4
4,1,99,66,64,55,43,46,28,32.45,6,3543,Male,2c46eda094feff3754af304e1ece6221,cross,4,1
4,2,0,94,91,37,51,55,10,45,2,8051,Male,2c46eda094feff3754af304e1ece6221,same,3,3
