n_categories,session,trial_id,x1_true,x2_true,x1_response,x2_response,x1_start,x2_start,rt,Sex,participant_id,stim_id
4,1,0,91,64,83,75,27,50,4931,Male,ef1f80fc1e2fff621a6df71da886514a,97
4,1,1,73,46,77,61,25,47,4407,Male,ef1f80fc1e2fff621a6df71da886514a,75
4,1,2,37,64,18,41,32,20,6421,Male,ef1f80fc1e2fff621a6df71da886514a,37
4,1,3,19,64,18,69,13,82,10223,Male,ef1f80fc1e2fff621a6df71da886514a,17
4,1,4,10,73,12,65,31,32,9163,Male,ef1f80fc1e2fff621a6df71da886514a,8
4,1,5,91,91,95,88,98,75,4748,Male,ef1f80fc1e2fff621a6df71da886514a,100
4,1,6,91,82,88,88,36,85,5980,Male,ef1f80fc1e2fff621a6df71da886514a,99
4,1,7,10,10,12,13,83,12,5644,Male,ef1f80fc1e2fff621a6df71da886514a,1
4,1,8,55,82,89,89,89,71,5277,Male,ef1f80fc1e2fff621a6df71da886514a,59
4,1,9,37,10,30,30,59,30,5134,Male,ef1f80fc1e2fff621a6df71da886514a,31
4,1,10,82,82,81,81,81,27,3846,Male,ef1f80fc1e2fff621a6df71da886514a,89
4,1,11,91,28,55,55,55,7,4637,Male,ef1f80fc1e2fff621a6df71da886514a,93
4,1,12,64,37,48,48,16,19,6785,Male,ef1f80fc1e2fff621a6df71da886514a,64
4,1,13,91,10,18,18,18,85,4120,Male,ef1f80fc1e2fff621a6df71da886514a,91
4,1,14,64,46,80,80,16,90,7225,Male,ef1f80fc1e2fff621a6df71da886514a,65
4,1,15,10,64,29,75,44,74,6265,Male,ef1f80fc1e2fff621a6df71da886514a,7
4,1,16,64,73,57,68,50,26,4870,Male,ef1f80fc1e2fff621a6df71da886514a,68
4,1,17,10,46,8,18,86,6,6722,Male,ef1f80fc1e2fff621a6df71da886514a,5
4,1,18,37,28,29,26,51,26,4016,Male,ef1f80fc1e2fff621a6df71da886514a,33
4,1,19,10,37,17,10,25,4,4735,Male,ef1f80fc1e2fff621a6df71da886514a,4
4,1,20,46,37,74,74,18,74,3172,Male,ef1f80fc1e2fff621a6df71da886514a,44
4,1,21,82,10,76,17,61,46,4851,Male,ef1f80fc1e2fff621a6df71da886514a,81
4,1,22,73,82,79,77,4,77,4803,Male,ef1f80fc1e2fff621a6df71da886514a,79
4,1,23,91,37,27,17,39,17,4260,Male,ef1f80fc1e2fff621a6df71da886514a,94
4,1,24,28,73,32,70,17,63,5774,Male,ef1f80fc1e2fff621a6df71da886514a,28
4,1,25,28,91,26,89,37,62,5294,Male,ef1f80fc1e2fff621a6df71da886514a,30
4,1,26,82,91,94,92,94,59,4848,Male,ef1f80fc1e2fff621a6df71da886514a,90
4,1,27,37,82,44,84,28,62,4249,Male,ef1f80fc1e2fff621a6df71da886514a,39
4,1,28,91,19,76,13,41,17,5554,Male,ef1f80fc1e2fff621a6df71da886514a,92
4,1,29,19,37,35,39,20,23,4489,Male,ef1f80fc1e2fff621a6df71da886514a,14
4,1,30,46,91,53,80,80,24,4111,Male,ef1f80fc1e2fff621a6df71da886514a,50
4,1,31,28,55,47,52,75,25,4389,Male,ef1f80fc1e2fff621a6df71da886514a,26
4,1,32,28,28,41,41,41,80,3457,Male,ef1f80fc1e2fff621a6df71da886514a,23
4,1,33,64,19,60,27,58,29,4117,Male,ef1f80fc1e2fff621a6df71da886514a,62
4,1,34,91,55,72,32,16,80,5626,Male,ef1f80fc1e2fff621a6df71da886514a,96
4,1,35,37,55,54,57,66,64,4759,Male,ef1f80fc1e2fff621a6df71da886514a,36
4,1,36,82,55,80,52,64,77,4717,Male,ef1f80fc1e2fff621a6df71da886514a,86
4,1,37,82,19,94,20,67,99,5891,Male,ef1f80fc1e2fff621a6df71da886514a,82
4,1,38,10,82,6,88,24,71,5832,Male,ef1f80fc1e2fff621a6df71da886514a,9
4,1,39,55,19,73,12,53,78,3674,Male,ef1f80fc1e2fff621a6df71da886514a,52
4,1,40,28,37,39,56,36,70,3771,Male,ef1f80fc1e2fff621a6df71da886514a,24
4,1,41,28,82,30,81,42,36,4356,Male,ef1f80fc1e2fff621a6df71da886514a,29
4,1,42,19,73,26,85,39,83,3345,Male,ef1f80fc1e2fff621a6df71da886514a,18
4,1,43,82,37,81,28,64,27,6099,Male,ef1f80fc1e2fff621a6df71da886514a,84
4,1,44,37,73,52,71,32,83,3911,Male,ef1f80fc1e2fff621a6df71da886514a,38
4,1,45,64,64,54,52,90,34,4776,Male,ef1f80fc1e2fff621a6df71da886514a,67
4,1,46,37,91,32,91,22,14,5540,Male,ef1f80fc1e2fff621a6df71da886514a,40
4,1,47,55,28,70,14,96,70,5445,Male,ef1f80fc1e2fff621a6df71da886514a,53
4,1,48,82,46,66,24,60,75,5068,Male,ef1f80fc1e2fff621a6df71da886514a,85
4,1,49,64,55,62,35,7,94,5120,Male,ef1f80fc1e2fff621a6df71da886514a,66
4,1,50,73,10,79,6,12,6,3370,Male,ef1f80fc1e2fff621a6df71da886514a,71
4,1,51,73,19,84,16,84,50,2914,Male,ef1f80fc1e2fff621a6df71da886514a,72
4,1,52,10,19,20,20,81,79,9658,Male,ef1f80fc1e2fff621a6df71da886514a,2
4,1,53,19,28,30,27,40,52,4746,Male,ef1f80fc1e2fff621a6df71da886514a,13
4,1,54,73,55,77,72,58,47,3591,Male,ef1f80fc1e2fff621a6df71da886514a,76
4,1,55,82,28,70,50,30,50,2997,Male,ef1f80fc1e2fff621a6df71da886514a,83
4,1,56,28,46,41,48,41,91,2877,Male,ef1f80fc1e2fff621a6df71da886514a,25
4,1,57,19,19,16,22,16,16,3837,Male,ef1f80fc1e2fff621a6df71da886514a,12
4,1,58,46,28,75,56,60,66,3843,Male,ef1f80fc1e2fff621a6df71da886514a,43
4,1,59,55,64,66,75,83,56,3722,Male,ef1f80fc1e2fff621a6df71da886514a,57
4,1,60,10,91,30,94,51,39,8985,Male,ef1f80fc1e2fff621a6df71da886514a,10
4,1,61,37,37,30,38,85,31,4756,Male,ef1f80fc1e2fff621a6df71da886514a,34
4,1,62,64,10,34,23,40,34,3472,Male,ef1f80fc1e2fff621a6df71da886514a,61
4,1,63,64,28,46,31,3,100,4597,Male,ef1f80fc1e2fff621a6df71da886514a,63
4,1,64,55,10,48,24,23,84,4783,Male,ef1f80fc1e2fff621a6df71da886514a,51
4,1,65,64,82,68,83,68,32,3786,Male,ef1f80fc1e2fff621a6df71da886514a,69
4,1,66,37,19,65,26,78,35,3587,Male,ef1f80fc1e2fff621a6df71da886514a,32
4,1,67,46,46,44,30,51,14,5494,Male,ef1f80fc1e2fff621a6df71da886514a,45
4,1,68,46,82,68,70,11,93,14695,Male,ef1f80fc1e2fff621a6df71da886514a,49
4,1,69,19,82,22,73,54,48,4089,Male,ef1f80fc1e2fff621a6df71da886514a,19
4,1,70,82,73,72,48,6,3,4284,Male,ef1f80fc1e2fff621a6df71da886514a,88
4,1,71,10,28,72,45,99,14,4366,Male,ef1f80fc1e2fff621a6df71da886514a,3
4,1,72,73,64,77,54,87,38,3977,Male,ef1f80fc1e2fff621a6df71da886514a,77
4,1,73,64,91,56,52,55,39,3457,Male,ef1f80fc1e2fff621a6df71da886514a,70
4,1,74,55,46,63,49,30,50,4999,Male,ef1f80fc1e2fff621a6df71da886514a,55
4,1,75,19,46,31,55,71,100,18550,Male,ef1f80fc1e2fff621a6df71da886514a,15
4,1,76,19,10,24,14,1,6,5605,Male,ef1f80fc1e2fff621a6df71da886514a,11
4,1,77,73,73,72,78,1,64,5386,Male,ef1f80fc1e2fff621a6df71da886514a,78
4,1,78,55,91,50,81,30,39,4823,Male,ef1f80fc1e2fff621a6df71da886514a,60
4,1,79,55,73,72,74,72,75,2190,Male,ef1f80fc1e2fff621a6df71da886514a,58
4,1,80,46,73,58,80,65,75,3541,Male,ef1f80fc1e2fff621a6df71da886514a,48
4,1,81,91,46,69,48,92,53,4443,Male,ef1f80fc1e2fff621a6df71da886514a,95
4,1,82,46,64,51,69,46,90,6218,Male,ef1f80fc1e2fff621a6df71da886514a,47
4,1,83,10,55,20,59,3,85,5484,Male,ef1f80fc1e2fff621a6df71da886514a,6
4,1,84,73,91,76,80,99,33,4548,Male,ef1f80fc1e2fff621a6df71da886514a,80
4,1,85,73,37,76,44,60,76,4199,Male,ef1f80fc1e2fff621a6df71da886514a,74
4,1,86,82,64,77,47,61,23,3884,Male,ef1f80fc1e2fff621a6df71da886514a,87
4,1,87,55,55,57,33,63,91,3742,Male,ef1f80fc1e2fff621a6df71da886514a,56
4,1,88,46,10,31,10,3,80,4908,Male,ef1f80fc1e2fff621a6df71da886514a,41
4,1,89,91,73,98,89,98,25,4125,Male,ef1f80fc1e2fff621a6df71da886514a,98
4,1,90,46,19,39,27,39,28,3166,Male,ef1f80fc1e2fff621a6df71da886514a,42
4,1,91,37,46,39,30,85,45,4372,Male,ef1f80fc1e2fff621a6df71da886514a,35
4,1,92,46,55,38,47,38,16,3166,Male,ef1f80fc1e2fff621a6df71da886514a,46
4,1,93,73,28,44,32,86,66,4761,Male,ef1f80fc1e2fff621a6df71da886514a,73
4,1,94,28,64,23,84,23,94,3359,Male,ef1f80fc1e2fff621a6df71da886514a,27
4,1,95,55,37,39,42,64,8,3948,Male,ef1f80fc1e2fff621a6df71da886514a,54
4,1,96,28,19,28,28,28,43,3512,Male,ef1f80fc1e2fff621a6df71da886514a,22
4,1,97,19,91,24,90,45,5,5914,Male,ef1f80fc1e2fff621a6df71da886514a,20
4,1,98,28,10,25,17,100,38,4188,Male,ef1f80fc1e2fff621a6df71da886514a,21
4,1,99,19,55,37,43,55,36,3639,Male,ef1f80fc1e2fff621a6df71da886514a,16
4,2,0,55,19,65,55,19,85,5745,Male,ef1f80fc1e2fff621a6df71da886514a,52
4,2,1,10,55,26,52,58,15,3899,Male,ef1f80fc1e2fff621a6df71da886514a,6
4,2,2,82,64,81,74,57,15,4322,Male,ef1f80fc1e2fff621a6df71da886514a,87
4,2,3,82,82,80,74,48,79,3659,Male,ef1f80fc1e2fff621a6df71da886514a,89
4,2,4,82,37,69,30,12,17,3626,Male,ef1f80fc1e2fff621a6df71da886514a,84
4,2,5,64,10,75,32,39,83,4038,Male,ef1f80fc1e2fff621a6df71da886514a,61
4,2,6,37,82,26,68,3,75,4411,Male,ef1f80fc1e2fff621a6df71da886514a,39
4,2,7,91,82,78,79,78,50,4508,Male,ef1f80fc1e2fff621a6df71da886514a,99
4,2,8,46,37,19,27,61,50,3600,Male,ef1f80fc1e2fff621a6df71da886514a,44
4,2,9,64,55,75,35,33,92,4572,Male,ef1f80fc1e2fff621a6df71da886514a,66
4,2,10,55,46,40,44,10,8,3808,Male,ef1f80fc1e2fff621a6df71da886514a,55
4,2,11,91,19,77,23,37,46,3349,Male,ef1f80fc1e2fff621a6df71da886514a,92
4,2,12,73,55,71,70,93,97,3941,Male,ef1f80fc1e2fff621a6df71da886514a,76
4,2,13,46,10,25,15,84,59,10336,Male,ef1f80fc1e2fff621a6df71da886514a,41
4,2,14,19,37,55,29,82,54,6566,Male,ef1f80fc1e2fff621a6df71da886514a,14
4,2,15,37,19,49,28,45,9,8308,Male,ef1f80fc1e2fff621a6df71da886514a,32
4,2,16,82,10,83,15,79,41,5846,Male,ef1f80fc1e2fff621a6df71da886514a,81
4,2,17,64,91,83,87,84,86,6014,Male,ef1f80fc1e2fff621a6df71da886514a,70
4,2,18,28,10,51,18,85,90,3887,Male,ef1f80fc1e2fff621a6df71da886514a,21
4,2,19,82,73,77,78,36,48,3556,Male,ef1f80fc1e2fff621a6df71da886514a,88
4,2,20,55,91,49,81,49,80,2758,Male,ef1f80fc1e2fff621a6df71da886514a,60
4,2,21,19,82,18,75,18,29,2794,Male,ef1f80fc1e2fff621a6df71da886514a,19
4,2,22,10,10,20,22,84,73,4679,Male,ef1f80fc1e2fff621a6df71da886514a,1
4,2,23,10,91,44,44,84,8,3590,Male,ef1f80fc1e2fff621a6df71da886514a,10
4,2,24,73,37,75,31,59,31,2599,Male,ef1f80fc1e2fff621a6df71da886514a,74
4,2,25,82,91,79,83,50,45,4004,Male,ef1f80fc1e2fff621a6df71da886514a,90
4,2,26,46,46,29,39,54,56,4515,Male,ef1f80fc1e2fff621a6df71da886514a,45
4,2,27,19,46,17,22,97,7,5486,Male,ef1f80fc1e2fff621a6df71da886514a,15
4,2,28,55,73,40,71,42,39,4919,Male,ef1f80fc1e2fff621a6df71da886514a,58
4,2,29,46,55,38,36,76,1,6329,Male,ef1f80fc1e2fff621a6df71da886514a,46
4,2,30,28,64,34,54,42,55,5161,Male,ef1f80fc1e2fff621a6df71da886514a,27
4,2,31,55,10,43,22,82,18,4834,Male,ef1f80fc1e2fff621a6df71da886514a,51
4,2,32,91,28,79,25,29,89,4917,Male,ef1f80fc1e2fff621a6df71da886514a,93
4,2,33,91,91,78,80,78,45,2631,Male,ef1f80fc1e2fff621a6df71da886514a,100
4,2,34,82,28,80,30,41,66,3586,Male,ef1f80fc1e2fff621a6df71da886514a,83
4,2,35,10,28,10,12,10,28,2840,Male,ef1f80fc1e2fff621a6df71da886514a,3
4,2,36,10,46,22,30,70,58,9062,Male,ef1f80fc1e2fff621a6df71da886514a,5
4,2,37,28,46,26,63,72,29,3166,Male,ef1f80fc1e2fff621a6df71da886514a,25
4,2,38,19,55,26,45,32,18,3263,Male,ef1f80fc1e2fff621a6df71da886514a,16
4,2,39,46,64,31,55,22,84,6056,Male,ef1f80fc1e2fff621a6df71da886514a,47
4,2,40,64,82,69,69,35,69,2312,Male,ef1f80fc1e2fff621a6df71da886514a,69
4,2,41,37,64,35,47,4,10,4004,Male,ef1f80fc1e2fff621a6df71da886514a,37
4,2,42,28,55,23,54,81,19,3834,Male,ef1f80fc1e2fff621a6df71da886514a,26
4,2,43,73,28,75,31,57,51,3608,Male,ef1f80fc1e2fff621a6df71da886514a,73
4,2,44,37,55,29,56,29,70,2223,Male,ef1f80fc1e2fff621a6df71da886514a,36
4,2,45,10,37,18,36,73,8,4787,Male,ef1f80fc1e2fff621a6df71da886514a,4
4,2,46,82,19,71,22,10,95,4748,Male,ef1f80fc1e2fff621a6df71da886514a,82
4,2,47,73,46,79,58,90,56,4025,Male,ef1f80fc1e2fff621a6df71da886514a,75
4,2,48,73,64,81,77,48,92,3546,Male,ef1f80fc1e2fff621a6df71da886514a,77
4,2,49,82,55,79,66,82,40,3730,Male,ef1f80fc1e2fff621a6df71da886514a,86
4,2,50,46,91,47,84,73,94,5944,Male,ef1f80fc1e2fff621a6df71da886514a,50
4,2,51,28,37,36,19,71,4,6079,Male,ef1f80fc1e2fff621a6df71da886514a,24
4,2,52,37,37,29,35,40,50,3242,Male,ef1f80fc1e2fff621a6df71da886514a,34
4,2,53,73,91,69,87,69,22,4030,Male,ef1f80fc1e2fff621a6df71da886514a,80
4,2,54,73,73,81,79,17,6,6696,Male,ef1f80fc1e2fff621a6df71da886514a,78
4,2,55,10,73,20,83,96,19,4173,Male,ef1f80fc1e2fff621a6df71da886514a,8
4,2,56,55,37,54,25,10,60,6166,Male,ef1f80fc1e2fff621a6df71da886514a,54
4,2,57,73,19,71,22,97,5,5103,Male,ef1f80fc1e2fff621a6df71da886514a,72
4,2,58,91,10,76,17,51,34,4125,Male,ef1f80fc1e2fff621a6df71da886514a,91
4,2,59,19,91,26,74,77,91,4531,Male,ef1f80fc1e2fff621a6df71da886514a,20
4,2,60,64,28,70,38,91,76,4533,Male,ef1f80fc1e2fff621a6df71da886514a,63
4,2,61,28,28,21,35,16,78,4098,Male,ef1f80fc1e2fff621a6df71da886514a,23
4,2,62,37,73,37,39,23,55,3894,Male,ef1f80fc1e2fff621a6df71da886514a,38
4,2,63,28,19,26,27,54,58,3863,Male,ef1f80fc1e2fff621a6df71da886514a,22
4,2,64,73,10,72,24,14,34,3773,Male,ef1f80fc1e2fff621a6df71da886514a,71
4,2,65,64,19,91,26,91,95,2970,Male,ef1f80fc1e2fff621a6df71da886514a,62
4,2,66,91,37,80,27,80,45,3417,Male,ef1f80fc1e2fff621a6df71da886514a,94
4,2,67,37,46,51,42,66,91,6327,Male,ef1f80fc1e2fff621a6df71da886514a,35
4,2,68,91,55,72,55,31,38,10126,Male,ef1f80fc1e2fff621a6df71da886514a,96
4,2,69,19,64,31,69,51,86,4573,Male,ef1f80fc1e2fff621a6df71da886514a,17
4,2,70,64,73,42,67,4,68,5365,Male,ef1f80fc1e2fff621a6df71da886514a,68
4,2,71,28,82,26,79,49,70,4083,Male,ef1f80fc1e2fff621a6df71da886514a,29
4,2,72,55,82,38,74,27,84,3864,Male,ef1f80fc1e2fff621a6df71da886514a,59
4,2,73,82,46,83,39,40,6,4661,Male,ef1f80fc1e2fff621a6df71da886514a,85
4,2,74,55,64,47,40,33,53,5551,Male,ef1f80fc1e2fff621a6df71da886514a,57
4,2,75,46,19,35,30,18,86,4123,Male,ef1f80fc1e2fff621a6df71da886514a,42
4,2,76,19,10,24,23,47,43,4159,Male,ef1f80fc1e2fff621a6df71da886514a,11
4,2,77,64,46,91,28,91,3,3361,Male,ef1f80fc1e2fff621a6df71da886514a,65
4,2,78,19,28,39,32,46,55,3556,Male,ef1f80fc1e2fff621a6df71da886514a,13
4,2,79,37,10,30,30,77,81,4489,Male,ef1f80fc1e2fff621a6df71da886514a,31
4,2,80,46,73,35,87,90,87,2764,Male,ef1f80fc1e2fff621a6df71da886514a,48
4,2,81,64,37,54,47,95,90,5253,Male,ef1f80fc1e2fff621a6df71da886514a,64
4,2,82,19,19,16,15,16,42,2216,Male,ef1f80fc1e2fff621a6df71da886514a,12
4,2,83,55,28,40,31,56,88,4162,Male,ef1f80fc1e2fff621a6df71da886514a,53
4,2,84,10,82,13,91,28,44,4313,Male,ef1f80fc1e2fff621a6df71da886514a,9
4,2,85,10,64,17,78,91,54,3470,Male,ef1f80fc1e2fff621a6df71da886514a,7
4,2,86,37,91,17,90,4,71,4084,Male,ef1f80fc1e2fff621a6df71da886514a,40
4,2,87,64,64,75,79,75,14,3897,Male,ef1f80fc1e2fff621a6df71da886514a,67
4,2,88,91,46,77,49,57,8,4240,Male,ef1f80fc1e2fff621a6df71da886514a,95
4,2,89,46,82,34,72,94,98,6215,Male,ef1f80fc1e2fff621a6df71da886514a,49
4,2,90,55,55,38,46,59,4,3512,Male,ef1f80fc1e2fff621a6df71da886514a,56
4,2,91,19,73,43,78,78,48,3829,Male,ef1f80fc1e2fff621a6df71da886514a,18
4,2,92,28,91,20,76,39,37,3645,Male,ef1f80fc1e2fff621a6df71da886514a,30
4,2,93,73,82,83,80,22,93,3811,Male,ef1f80fc1e2fff621a6df71da886514a,79
4,2,94,37,28,20,21,91,84,5376,Male,ef1f80fc1e2fff621a6df71da886514a,33
4,2,95,46,28,35,37,90,81,4779,Male,ef1f80fc1e2fff621a6df71da886514a,43
4,2,96,28,73,28,69,41,55,3356,Male,ef1f80fc1e2fff621a6df71da886514a,28
4,2,97,10,19,13,15,13,67,2637,Male,ef1f80fc1e2fff621a6df71da886514a,2
4,2,98,91,64,72,58,100,85,9549,Male,ef1f80fc1e2fff621a6df71da886514a,97
4,2,99,91,73,81,82,63,39,3615,Male,ef1f80fc1e2fff621a6df71da886514a,98
1,1,0,19,82,32,81,45,91,6616,Male,2f49261da241afa0d9c848b46d3f4d22,19
1,1,1,91,28,82,23,85,12,7699,Male,2f49261da241afa0d9c848b46d3f4d22,93
1,1,2,10,19,32,16,53,55,7840,Male,2f49261da241afa0d9c848b46d3f4d22,2
1,1,3,10,82,12,80,7,80,9540,Male,2f49261da241afa0d9c848b46d3f4d22,9
1,1,4,73,91,63,80,21,48,9265,Male,2f49261da241afa0d9c848b46d3f4d22,80
1,1,5,64,28,68,34,24,36,8284,Male,2f49261da241afa0d9c848b46d3f4d22,63
1,1,6,82,46,72,52,98,50,8984,Male,2f49261da241afa0d9c848b46d3f4d22,85
1,1,7,28,10,42,15,79,90,6205,Male,2f49261da241afa0d9c848b46d3f4d22,21
1,1,8,37,46,30,48,44,23,8595,Male,2f49261da241afa0d9c848b46d3f4d22,35
1,1,9,82,55,74,45,65,35,5031,Male,2f49261da241afa0d9c848b46d3f4d22,86
1,1,10,19,28,22,44,94,63,8743,Male,2f49261da241afa0d9c848b46d3f4d22,13
1,1,11,19,73,21,85,18,63,9792,Male,2f49261da241afa0d9c848b46d3f4d22,18
1,1,12,10,55,9,75,53,9,8211,Male,2f49261da241afa0d9c848b46d3f4d22,6
1,1,13,64,55,60,54,11,28,5479,Male,2f49261da241afa0d9c848b46d3f4d22,66
1,1,14,91,55,83,63,63,50,9079,Male,2f49261da241afa0d9c848b46d3f4d22,96
1,1,15,91,73,83,78,83,30,3982,Male,2f49261da241afa0d9c848b46d3f4d22,98
1,1,16,91,10,84,7,89,3,6332,Male,2f49261da241afa0d9c848b46d3f4d22,91
1,1,17,73,10,79,10,13,99,5903,Male,2f49261da241afa0d9c848b46d3f4d22,71
1,1,18,19,19,30,12,100,93,6403,Male,2f49261da241afa0d9c848b46d3f4d22,12
1,1,19,19,37,36,23,65,75,8704,Male,2f49261da241afa0d9c848b46d3f4d22,14
1,1,20,28,64,24,63,74,42,5495,Male,2f49261da241afa0d9c848b46d3f4d22,27
1,1,21,10,73,18,74,66,17,4955,Male,2f49261da241afa0d9c848b46d3f4d22,8
1,1,22,46,55,33,60,100,49,5828,Male,2f49261da241afa0d9c848b46d3f4d22,46
1,1,23,55,91,46,95,36,73,6945,Male,2f49261da241afa0d9c848b46d3f4d22,60
1,1,24,19,10,20,9,53,79,5165,Male,2f49261da241afa0d9c848b46d3f4d22,11
1,1,25,37,10,33,7,29,7,3511,Male,2f49261da241afa0d9c848b46d3f4d22,31
1,1,26,73,82,55,87,72,64,10462,Male,2f49261da241afa0d9c848b46d3f4d22,79
1,1,27,82,91,81,84,44,63,4211,Male,2f49261da241afa0d9c848b46d3f4d22,90
1,1,28,55,10,82,13,63,39,5790,Male,2f49261da241afa0d9c848b46d3f4d22,51
1,1,29,28,91,27,83,35,76,7651,Male,2f49261da241afa0d9c848b46d3f4d22,30
1,1,30,91,46,80,52,94,75,7610,Male,2f49261da241afa0d9c848b46d3f4d22,95
1,1,31,73,28,79,28,56,96,11286,Male,2f49261da241afa0d9c848b46d3f4d22,73
1,1,32,64,91,78,89,86,82,6238,Male,2f49261da241afa0d9c848b46d3f4d22,70
1,1,33,46,46,58,73,51,48,6471,Male,2f49261da241afa0d9c848b46d3f4d22,45
1,1,34,46,37,55,43,100,23,7240,Male,2f49261da241afa0d9c848b46d3f4d22,44
1,1,35,28,73,26,70,6,4,7641,Male,2f49261da241afa0d9c848b46d3f4d22,28
1,1,36,37,73,29,58,5,37,4284,Male,2f49261da241afa0d9c848b46d3f4d22,38
1,1,37,64,46,48,51,64,36,6327,Male,2f49261da241afa0d9c848b46d3f4d22,65
1,1,38,19,64,28,70,34,81,3632,Male,2f49261da241afa0d9c848b46d3f4d22,17
1,1,39,37,37,22,38,24,49,5064,Male,2f49261da241afa0d9c848b46d3f4d22,34
1,1,40,10,10,10,4,74,100,5017,Male,2f49261da241afa0d9c848b46d3f4d22,1
1,1,41,10,28,11,25,19,72,6713,Male,2f49261da241afa0d9c848b46d3f4d22,3
1,1,42,46,91,47,91,13,14,6336,Male,2f49261da241afa0d9c848b46d3f4d22,50
1,1,43,73,19,61,16,31,52,6746,Male,2f49261da241afa0d9c848b46d3f4d22,72
1,1,44,46,82,50,67,58,22,6844,Male,2f49261da241afa0d9c848b46d3f4d22,49
1,1,45,46,64,43,64,26,28,5610,Male,2f49261da241afa0d9c848b46d3f4d22,47
1,1,46,10,46,11,52,28,80,6836,Male,2f49261da241afa0d9c848b46d3f4d22,5
1,1,47,73,46,80,35,38,28,4444,Male,2f49261da241afa0d9c848b46d3f4d22,75
1,1,48,37,55,54,53,85,69,11288,Male,2f49261da241afa0d9c848b46d3f4d22,36
1,1,49,46,10,58,13,85,80,6408,Male,2f49261da241afa0d9c848b46d3f4d22,41
1,1,50,91,64,86,68,40,44,7005,Male,2f49261da241afa0d9c848b46d3f4d22,97
1,1,51,10,64,6,78,32,37,6400,Male,2f49261da241afa0d9c848b46d3f4d22,7
1,1,52,28,46,27,42,96,22,6524,Male,2f49261da241afa0d9c848b46d3f4d22,25
1,1,53,91,82,79,88,11,52,7985,Male,2f49261da241afa0d9c848b46d3f4d22,99
1,1,54,19,55,24,69,91,73,6204,Male,2f49261da241afa0d9c848b46d3f4d22,16
1,1,55,37,28,30,21,99,50,8658,Male,2f49261da241afa0d9c848b46d3f4d22,33
1,1,56,46,28,42,22,98,82,6356,Male,2f49261da241afa0d9c848b46d3f4d22,43
1,1,57,55,55,50,62,57,94,7387,Male,2f49261da241afa0d9c848b46d3f4d22,56
1,1,58,10,91,8,90,13,35,4334,Male,2f49261da241afa0d9c848b46d3f4d22,10
1,1,59,55,82,51,88,48,96,8856,Male,2f49261da241afa0d9c848b46d3f4d22,59
1,1,60,46,19,52,25,89,68,6417,Male,2f49261da241afa0d9c848b46d3f4d22,42
1,1,61,28,19,23,18,88,79,6675,Male,2f49261da241afa0d9c848b46d3f4d22,22
1,1,62,82,73,77,77,11,61,9086,Male,2f49261da241afa0d9c848b46d3f4d22,88
1,1,63,28,55,40,70,52,82,6615,Male,2f49261da241afa0d9c848b46d3f4d22,26
1,1,64,55,37,41,46,74,78,5746,Male,2f49261da241afa0d9c848b46d3f4d22,54
1,1,65,19,91,16,76,56,87,5015,Male,2f49261da241afa0d9c848b46d3f4d22,20
1,1,66,91,91,93,88,34,100,5346,Male,2f49261da241afa0d9c848b46d3f4d22,100
1,1,67,55,46,81,35,70,67,5537,Male,2f49261da241afa0d9c848b46d3f4d22,55
1,1,68,82,37,72,34,59,9,4695,Male,2f49261da241afa0d9c848b46d3f4d22,84
1,1,69,10,37,15,33,35,2,6656,Male,2f49261da241afa0d9c848b46d3f4d22,4
1,1,70,73,55,69,35,74,12,7165,Male,2f49261da241afa0d9c848b46d3f4d22,76
1,1,71,37,19,36,20,39,87,6187,Male,2f49261da241afa0d9c848b46d3f4d22,32
1,1,72,64,37,63,31,58,48,6767,Male,2f49261da241afa0d9c848b46d3f4d22,64
1,1,73,73,64,69,71,61,40,7276,Male,2f49261da241afa0d9c848b46d3f4d22,77
1,1,74,82,28,74,23,27,12,6186,Male,2f49261da241afa0d9c848b46d3f4d22,83
1,1,75,64,82,58,74,99,62,6214,Male,2f49261da241afa0d9c848b46d3f4d22,69
1,1,76,82,82,69,90,96,11,4334,Male,2f49261da241afa0d9c848b46d3f4d22,89
1,1,77,55,64,65,75,94,70,7226,Male,2f49261da241afa0d9c848b46d3f4d22,57
1,1,78,64,10,62,15,18,10,5446,Male,2f49261da241afa0d9c848b46d3f4d22,61
1,1,79,46,73,42,34,77,11,7194,Male,2f49261da241afa0d9c848b46d3f4d22,48
1,1,80,55,28,52,29,57,84,8084,Male,2f49261da241afa0d9c848b46d3f4d22,53
1,1,81,28,28,32,21,46,77,7561,Male,2f49261da241afa0d9c848b46d3f4d22,23
1,1,82,73,73,72,74,45,69,6329,Male,2f49261da241afa0d9c848b46d3f4d22,78
1,1,83,37,82,46,88,31,68,6045,Male,2f49261da241afa0d9c848b46d3f4d22,39
1,1,84,82,64,69,75,6,30,5968,Male,2f49261da241afa0d9c848b46d3f4d22,87
1,1,85,73,37,71,43,85,100,7241,Male,2f49261da241afa0d9c848b46d3f4d22,74
1,1,86,64,73,68,56,97,91,8010,Male,2f49261da241afa0d9c848b46d3f4d22,68
1,1,87,37,64,36,58,13,48,4192,Male,2f49261da241afa0d9c848b46d3f4d22,37
1,1,88,91,19,76,25,98,47,4655,Male,2f49261da241afa0d9c848b46d3f4d22,92
1,1,89,55,19,56,22,75,72,4695,Male,2f49261da241afa0d9c848b46d3f4d22,52
1,1,90,55,73,59,76,46,51,4296,Male,2f49261da241afa0d9c848b46d3f4d22,58
1,1,91,91,37,94,38,37,3,4793,Male,2f49261da241afa0d9c848b46d3f4d22,94
1,1,92,37,91,30,90,57,43,5467,Male,2f49261da241afa0d9c848b46d3f4d22,40
1,1,93,28,37,24,42,82,99,8648,Male,2f49261da241afa0d9c848b46d3f4d22,24
1,1,94,64,64,49,55,17,42,6978,Male,2f49261da241afa0d9c848b46d3f4d22,67
1,1,95,82,19,79,25,98,78,7026,Male,2f49261da241afa0d9c848b46d3f4d22,82
1,1,96,82,10,83,7,2,10,3144,Male,2f49261da241afa0d9c848b46d3f4d22,81
1,1,97,28,82,22,77,13,23,5871,Male,2f49261da241afa0d9c848b46d3f4d22,29
1,1,98,64,19,67,29,53,43,4507,Male,2f49261da241afa0d9c848b46d3f4d22,62
1,1,99,19,46,14,32,14,28,8159,Male,2f49261da241afa0d9c848b46d3f4d22,15
1,2,0,46,73,41,67,39,33,5723,Male,2f49261da241afa0d9c848b46d3f4d22,48
1,2,1,82,46,69,37,86,44,4593,Male,2f49261da241afa0d9c848b46d3f4d22,85
1,2,2,46,10,51,12,98,31,7455,Male,2f49261da241afa0d9c848b46d3f4d22,41
1,2,3,82,64,76,53,78,24,5865,Male,2f49261da241afa0d9c848b46d3f4d22,87
1,2,4,64,82,68,66,15,26,3247,Male,2f49261da241afa0d9c848b46d3f4d22,69
1,2,5,73,37,73,43,18,29,9412,Male,2f49261da241afa0d9c848b46d3f4d22,74
1,2,6,19,55,14,51,64,5,3882,Male,2f49261da241afa0d9c848b46d3f4d22,16
1,2,7,64,37,59,40,28,35,4615,Male,2f49261da241afa0d9c848b46d3f4d22,64
1,2,8,91,19,90,18,17,66,4291,Male,2f49261da241afa0d9c848b46d3f4d22,92
1,2,9,46,64,40,69,63,23,4752,Male,2f49261da241afa0d9c848b46d3f4d22,47
1,2,10,37,82,23,87,92,93,6354,Male,2f49261da241afa0d9c848b46d3f4d22,39
1,2,11,46,91,41,92,38,72,7143,Male,2f49261da241afa0d9c848b46d3f4d22,50
1,2,12,46,46,53,70,8,30,3967,Male,2f49261da241afa0d9c848b46d3f4d22,45
1,2,13,10,91,10,85,69,72,5801,Male,2f49261da241afa0d9c848b46d3f4d22,10
1,2,14,73,10,74,10,10,15,4721,Male,2f49261da241afa0d9c848b46d3f4d22,71
1,2,15,10,82,2,93,70,97,4153,Male,2f49261da241afa0d9c848b46d3f4d22,9
1,2,16,10,46,8,51,47,26,6098,Male,2f49261da241afa0d9c848b46d3f4d22,5
1,2,17,64,10,69,18,91,76,5589,Male,2f49261da241afa0d9c848b46d3f4d22,61
1,2,18,19,46,28,31,87,81,5450,Male,2f49261da241afa0d9c848b46d3f4d22,15
1,2,19,64,55,58,46,42,84,8563,Male,2f49261da241afa0d9c848b46d3f4d22,66
1,2,20,37,91,35,85,45,47,9221,Male,2f49261da241afa0d9c848b46d3f4d22,40
1,2,21,91,28,94,27,47,50,8718,Male,2f49261da241afa0d9c848b46d3f4d22,93
1,2,22,73,73,83,78,88,90,6678,Male,2f49261da241afa0d9c848b46d3f4d22,78
1,2,23,73,55,73,51,41,63,4623,Male,2f49261da241afa0d9c848b46d3f4d22,76
1,2,24,10,19,3,12,36,83,4114,Male,2f49261da241afa0d9c848b46d3f4d22,2
1,2,25,10,73,9,74,66,22,5930,Male,2f49261da241afa0d9c848b46d3f4d22,8
1,2,26,28,19,16,16,48,51,5971,Male,2f49261da241afa0d9c848b46d3f4d22,22
1,2,27,73,28,65,14,12,92,9117,Male,2f49261da241afa0d9c848b46d3f4d22,73
1,2,28,19,19,13,18,7,76,8385,Male,2f49261da241afa0d9c848b46d3f4d22,12
1,2,29,64,64,54,73,20,2,11368,Male,2f49261da241afa0d9c848b46d3f4d22,67
1,2,30,73,64,73,68,58,78,5692,Male,2f49261da241afa0d9c848b46d3f4d22,77
1,2,31,19,73,20,75,59,60,6212,Male,2f49261da241afa0d9c848b46d3f4d22,18
1,2,32,37,28,26,35,97,87,7169,Male,2f49261da241afa0d9c848b46d3f4d22,33
1,2,33,46,55,46,46,75,80,5952,Male,2f49261da241afa0d9c848b46d3f4d22,46
1,2,34,28,46,32,43,33,29,5531,Male,2f49261da241afa0d9c848b46d3f4d22,25
1,2,35,91,10,96,10,8,42,12212,Male,2f49261da241afa0d9c848b46d3f4d22,91
1,2,36,55,82,58,89,14,40,4671,Male,2f49261da241afa0d9c848b46d3f4d22,59
1,2,37,73,46,52,51,19,15,19169,Male,2f49261da241afa0d9c848b46d3f4d22,75
1,2,38,37,46,43,35,70,85,9608,Male,2f49261da241afa0d9c848b46d3f4d22,35
1,2,39,10,28,4,28,73,61,4391,Male,2f49261da241afa0d9c848b46d3f4d22,3
1,2,40,55,37,38,28,30,45,3640,Male,2f49261da241afa0d9c848b46d3f4d22,54
1,2,41,73,82,69,83,36,37,7850,Male,2f49261da241afa0d9c848b46d3f4d22,79
1,2,42,19,10,28,10,32,91,7705,Male,2f49261da241afa0d9c848b46d3f4d22,11
1,2,43,82,19,70,14,65,44,7700,Male,2f49261da241afa0d9c848b46d3f4d22,82
1,2,44,82,28,82,21,56,70,3473,Male,2f49261da241afa0d9c848b46d3f4d22,83
1,2,45,46,37,54,34,25,53,5796,Male,2f49261da241afa0d9c848b46d3f4d22,44
1,2,46,73,19,75,19,64,43,4505,Male,2f49261da241afa0d9c848b46d3f4d22,72
1,2,47,37,73,46,72,90,1,7841,Male,2f49261da241afa0d9c848b46d3f4d22,38
1,2,48,91,73,88,82,4,98,6366,Male,2f49261da241afa0d9c848b46d3f4d22,98
1,2,49,91,64,89,69,44,56,7506,Male,2f49261da241afa0d9c848b46d3f4d22,97
1,2,50,37,19,36,14,83,48,4622,Male,2f49261da241afa0d9c848b46d3f4d22,32
1,2,51,46,19,40,15,19,83,4583,Male,2f49261da241afa0d9c848b46d3f4d22,42
1,2,52,91,91,79,86,59,79,10580,Male,2f49261da241afa0d9c848b46d3f4d22,100
1,2,53,82,82,86,82,11,50,6963,Male,2f49261da241afa0d9c848b46d3f4d22,89
1,2,54,37,10,31,4,54,94,4634,Male,2f49261da241afa0d9c848b46d3f4d22,31
1,2,55,55,73,46,64,53,3,3724,Male,2f49261da241afa0d9c848b46d3f4d22,58
1,2,56,55,91,53,86,56,46,5577,Male,2f49261da241afa0d9c848b46d3f4d22,60
1,2,57,55,55,50,59,51,29,8456,Male,2f49261da241afa0d9c848b46d3f4d22,56
1,2,58,91,37,88,39,18,75,4834,Male,2f49261da241afa0d9c848b46d3f4d22,94
1,2,59,37,55,48,47,72,1,8081,Male,2f49261da241afa0d9c848b46d3f4d22,36
1,2,60,28,55,19,34,48,70,6240,Male,2f49261da241afa0d9c848b46d3f4d22,26
1,2,61,64,91,62,94,70,31,6199,Male,2f49261da241afa0d9c848b46d3f4d22,70
1,2,62,10,37,5,27,32,38,4234,Male,2f49261da241afa0d9c848b46d3f4d22,4
1,2,63,82,73,40,78,53,7,4207,Male,2f49261da241afa0d9c848b46d3f4d22,88
1,2,64,28,73,30,77,42,46,4938,Male,2f49261da241afa0d9c848b46d3f4d22,28
1,2,65,19,37,23,30,12,18,3374,Male,2f49261da241afa0d9c848b46d3f4d22,14
1,2,66,91,82,95,93,67,91,4789,Male,2f49261da241afa0d9c848b46d3f4d22,99
1,2,67,46,82,70,83,89,7,7109,Male,2f49261da241afa0d9c848b46d3f4d22,49
1,2,68,37,37,55,33,1,10,4194,Male,2f49261da241afa0d9c848b46d3f4d22,34
1,2,69,37,64,56,58,55,62,5909,Male,2f49261da241afa0d9c848b46d3f4d22,37
1,2,70,55,28,51,21,20,59,5038,Male,2f49261da241afa0d9c848b46d3f4d22,53
1,2,71,28,82,29,78,6,1,4405,Male,2f49261da241afa0d9c848b46d3f4d22,29
1,2,72,28,28,31,28,1,83,6945,Male,2f49261da241afa0d9c848b46d3f4d22,23
1,2,73,91,55,91,57,33,74,6644,Male,2f49261da241afa0d9c848b46d3f4d22,96
1,2,74,55,19,62,12,79,10,4595,Male,2f49261da241afa0d9c848b46d3f4d22,52
1,2,75,55,10,42,13,43,47,5085,Male,2f49261da241afa0d9c848b46d3f4d22,51
1,2,76,10,64,10,60,19,69,9746,Male,2f49261da241afa0d9c848b46d3f4d22,7
1,2,77,91,46,83,45,18,74,5455,Male,2f49261da241afa0d9c848b46d3f4d22,95
1,2,78,28,91,22,73,2,59,4334,Male,2f49261da241afa0d9c848b46d3f4d22,30
1,2,79,55,46,40,47,6,39,3184,Male,2f49261da241afa0d9c848b46d3f4d22,55
1,2,80,82,55,80,58,99,42,6677,Male,2f49261da241afa0d9c848b46d3f4d22,86
1,2,81,55,64,59,52,58,92,3966,Male,2f49261da241afa0d9c848b46d3f4d22,57
1,2,82,64,19,57,20,72,24,4139,Male,2f49261da241afa0d9c848b46d3f4d22,62
1,2,83,19,91,11,80,42,80,3391,Male,2f49261da241afa0d9c848b46d3f4d22,20
1,2,84,19,82,10,80,43,5,5396,Male,2f49261da241afa0d9c848b46d3f4d22,19
1,2,85,64,28,58,24,48,31,4214,Male,2f49261da241afa0d9c848b46d3f4d22,63
1,2,86,19,28,33,16,33,35,4906,Male,2f49261da241afa0d9c848b46d3f4d22,13
1,2,87,82,91,87,89,76,91,4820,Male,2f49261da241afa0d9c848b46d3f4d22,90
1,2,88,46,28,53,23,72,66,6848,Male,2f49261da241afa0d9c848b46d3f4d22,43
1,2,89,73,91,62,94,54,100,6269,Male,2f49261da241afa0d9c848b46d3f4d22,80
1,2,90,64,73,65,69,84,27,6931,Male,2f49261da241afa0d9c848b46d3f4d22,68
1,2,91,10,55,1,57,71,40,4568,Male,2f49261da241afa0d9c848b46d3f4d22,6
1,2,92,10,10,3,9,36,7,4320,Male,2f49261da241afa0d9c848b46d3f4d22,1
1,2,93,28,37,16,28,20,63,9007,Male,2f49261da241afa0d9c848b46d3f4d22,24
1,2,94,82,37,70,33,96,10,5463,Male,2f49261da241afa0d9c848b46d3f4d22,84
1,2,95,82,10,83,10,20,89,19169,Male,2f49261da241afa0d9c848b46d3f4d22,81
1,2,96,28,10,67,12,84,87,2786,Male,2f49261da241afa0d9c848b46d3f4d22,21
1,2,97,64,46,69,50,46,38,5435,Male,2f49261da241afa0d9c848b46d3f4d22,65
1,2,98,28,64,29,40,13,54,9185,Male,2f49261da241afa0d9c848b46d3f4d22,27
1,2,99,19,64,25,54,97,20,14387,Male,2f49261da241afa0d9c848b46d3f4d22,17
4,1,0,64,73,67,60,28,87,6735,Female,1806f9ff5fc2ab1ce3118f94da7c9c1a,68
4,1,1,73,82,58,73,40,65,3918,Female,1806f9ff5fc2ab1ce3118f94da7c9c1a,79
4,1,2,64,64,59,76,64,62,5776,Female,1806f9ff5fc2ab1ce3118f94da7c9c1a,67
4,1,3,19,82,27,71,89,95,5604,Female,1806f9ff5fc2ab1ce3118f94da7c9c1a,19
4,1,4,82,73,60,68,96,80,6932,Female,1806f9ff5fc2ab1ce3118f94da7c9c1a,88
4,1,5,46,91,55,70,70,79,3357,Female,1806f9ff5fc2ab1ce3118f94da7c9c1a,50
4,1,6,28,73,50,66,19,83,5327,Female,1806f9ff5fc2ab1ce3118f94da7c9c1a,28
4,1,7,73,37,66,46,40,97,4673,Female,1806f9ff5fc2ab1ce3118f94da7c9c1a,74
4,1,8,10,64,26,45,29,48,5199,Female,1806f9ff5fc2ab1ce3118f94da7c9c1a,7
4,1,9,73,28,80,33,27,3,5865,Female,1806f9ff5fc2ab1ce3118f94da7c9c1a,73
4,1,10,91,46,74,37,92,17,4167,Female,1806f9ff5fc2ab1ce3118f94da7c9c1a,95
4,1,11,82,82,83,57,62,36,3894,Female,1806f9ff5fc2ab1ce3118f94da7c9c1a,89
4,1,12,91,82,74,69,84,19,2944,Female,1806f9ff5fc2ab1ce3118f94da7c9c1a,99
4,1,13,55,91,63,87,72,20,4181,Female,1806f9ff5fc2ab1ce3118f94da7c9c1a,60
4,1,14,82,28,90,31,95,8,4589,Female,1806f9ff5fc2ab1ce3118f94da7c9c1a,83
4,1,15,46,82,28,78,21,30,4165,Female,1806f9ff5fc2ab1ce3118f94da7c9c1a,49
4,1,16,10,46,14,26,12,13,6224,Female,1806f9ff5fc2ab1ce3118f94da7c9c1a,5
4,1,17,73,46,78,35,78,100,3420,Female,1806f9ff5fc2ab1ce3118f94da7c9c1a,75
4,1,18,19,37,34,59,40,47,4961,Female,1806f9ff5fc2ab1ce3118f94da7c9c1a,14
4,1,19,46,19,73,23,44,22,4846,Female,1806f9ff5fc2ab1ce3118f94da7c9c1a,42
4,1,20,10,19,15,19,7,18,2487,Female,1806f9ff5fc2ab1ce3118f94da7c9c1a,2
4,1,21,64,55,76,22,4,90,3249,Female,1806f9ff5fc2ab1ce3118f94da7c9c1a,66
4,1,22,28,82,21,82,70,60,3134,Female,1806f9ff5fc2ab1ce3118f94da7c9c1a,29
4,1,23,82,19,83,19,85,2,4545,Female,1806f9ff5fc2ab1ce3118f94da7c9c1a,82
4,1,24,10,82,9,82,82,1,3711,Female,1806f9ff5fc2ab1ce3118f94da7c9c1a,9
4,1,25,82,64,68,67,62,87,2311,Female,1806f9ff5fc2ab1ce3118f94da7c9c1a,87
4,1,26,46,37,41,43,46,52,1823,Female,1806f9ff5fc2ab1ce3118f94da7c9c1a,44
4,1,27,64,37,32,40,18,48,2508,Female,1806f9ff5fc2ab1ce3118f94da7c9c1a,64
4,1,28,37,91,36,87,94,41,4290,Female,1806f9ff5fc2ab1ce3118f94da7c9c1a,40
4,1,29,28,64,36,35,39,69,2236,Female,1806f9ff5fc2ab1ce3118f94da7c9c1a,27
4,1,30,64,19,70,64,66,69,1934,Female,1806f9ff5fc2ab1ce3118f94da7c9c1a,62
4,1,31,10,37,43,56,55,3,5026,Female,1806f9ff5fc2ab1ce3118f94da7c9c1a,4
4,1,32,10,55,11,34,47,45,5109,Female,1806f9ff5fc2ab1ce3118f94da7c9c1a,6
4,1,33,73,91,81,77,65,23,4599,Female,1806f9ff5fc2ab1ce3118f94da7c9c1a,80
4,1,34,64,28,76,24,37,77,3366,Female,1806f9ff5fc2ab1ce3118f94da7c9c1a,63
4,1,35,82,46,79,48,59,91,3966,Female,1806f9ff5fc2ab1ce3118f94da7c9c1a,85
4,1,36,46,55,81,56,86,76,2708,Female,1806f9ff5fc2ab1ce3118f94da7c9c1a,46
4,1,37,82,10,94,6,99,67,6373,Female,1806f9ff5fc2ab1ce3118f94da7c9c1a,81
4,1,38,46,46,18,33,72,41,4076,Female,1806f9ff5fc2ab1ce3118f94da7c9c1a,45
4,1,39,19,64,20,41,43,66,2485,Female,1806f9ff5fc2ab1ce3118f94da7c9c1a,17
4,1,40,73,19,82,22,89,83,2694,Female,1806f9ff5fc2ab1ce3118f94da7c9c1a,72
4,1,41,19,10,32,17,4,46,5210,Female,1806f9ff5fc2ab1ce3118f94da7c9c1a,11
4,1,42,91,19,91,12,3,10,4268,Female,1806f9ff5fc2ab1ce3118f94da7c9c1a,92
4,1,43,73,73,62,44,71,91,4165,Female,1806f9ff5fc2ab1ce3118f94da7c9c1a,78
4,1,44,37,82,8,75,8,75,2095,Female,1806f9ff5fc2ab1ce3118f94da7c9c1a,39
4,1,45,37,10,74,20,50,95,2401,Female,1806f9ff5fc2ab1ce3118f94da7c9c1a,31
4,1,46,37,55,35,64,84,71,3240,Female,1806f9ff5fc2ab1ce3118f94da7c9c1a,36
4,1,47,55,64,88,92,88,92,1179,Female,1806f9ff5fc2ab1ce3118f94da7c9c1a,57
4,1,48,64,82,95,84,95,84,1295,Female,1806f9ff5fc2ab1ce3118f94da7c9c1a,69
4,1,49,82,55,57,42,57,42,1425,Female,1806f9ff5fc2ab1ce3118f94da7c9c1a,86
4,1,50,46,10,26,21,26,21,1197,Female,1806f9ff5fc2ab1ce3118f94da7c9c1a,41
4,1,51,55,19,39,2,39,2,913,Female,1806f9ff5fc2ab1ce3118f94da7c9c1a,52
4,1,52,55,46,43,47,87,47,2782,Female,1806f9ff5fc2ab1ce3118f94da7c9c1a,55
4,1,53,10,10,84,1,84,1,1908,Female,1806f9ff5fc2ab1ce3118f94da7c9c1a,1
4,1,54,10,73,60,74,60,74,1092,Female,1806f9ff5fc2ab1ce3118f94da7c9c1a,8
4,1,55,37,73,10,36,10,36,876,Female,1806f9ff5fc2ab1ce3118f94da7c9c1a,38
4,1,56,91,55,97,47,97,47,670,Female,1806f9ff5fc2ab1ce3118f94da7c9c1a,96
4,1,57,64,10,55,38,55,38,885,Female,1806f9ff5fc2ab1ce3118f94da7c9c1a,61
4,1,58,73,55,73,5,73,5,761,Female,1806f9ff5fc2ab1ce3118f94da7c9c1a,76
4,1,59,19,73,34,82,61,75,2265,Female,1806f9ff5fc2ab1ce3118f94da7c9c1a,18
4,1,60,55,55,64,27,64,27,1187,Female,1806f9ff5fc2ab1ce3118f94da7c9c1a,56
4,1,61,82,37,81,19,32,6,2223,Female,1806f9ff5fc2ab1ce3118f94da7c9c1a,84
4,1,62,19,19,11,15,11,15,856,Female,1806f9ff5fc2ab1ce3118f94da7c9c1a,12
4,1,63,37,28,13,72,13,72,980,Female,1806f9ff5fc2ab1ce3118f94da7c9c1a,33
4,1,64,37,37,57,27,40,27,5860,Female,1806f9ff5fc2ab1ce3118f94da7c9c1a,34
4,1,65,10,28,45,58,53,61,2164,Female,1806f9ff5fc2ab1ce3118f94da7c9c1a,3
4,1,66,28,19,26,25,71,33,2122,Female,1806f9ff5fc2ab1ce3118f94da7c9c1a,22
4,1,67,73,64,76,65,76,65,664,Female,1806f9ff5fc2ab1ce3118f94da7c9c1a,77
4,1,68,91,64,77,76,21,38,1830,Female,1806f9ff5fc2ab1ce3118f94da7c9c1a,97
4,1,69,91,37,74,69,59,46,2111,Female,1806f9ff5fc2ab1ce3118f94da7c9c1a,94
4,1,70,55,82,29,65,7,4,3828,Female,1806f9ff5fc2ab1ce3118f94da7c9c1a,59
4,1,71,28,37,17,28,86,67,3326,Female,1806f9ff5fc2ab1ce3118f94da7c9c1a,24
4,1,72,37,46,18,44,18,22,2976,Female,1806f9ff5fc2ab1ce3118f94da7c9c1a,35
4,1,73,37,19,37,14,23,29,2837,Female,1806f9ff5fc2ab1ce3118f94da7c9c1a,32
4,1,74,91,10,88,11,84,36,2564,Female,1806f9ff5fc2ab1ce3118f94da7c9c1a,91
4,1,75,55,10,94,11,49,33,4774,Female,1806f9ff5fc2ab1ce3118f94da7c9c1a,51
4,1,76,64,46,53,43,80,15,2693,Female,1806f9ff5fc2ab1ce3118f94da7c9c1a,65
4,1,77,28,91,35,75,78,72,4536,Female,1806f9ff5fc2ab1ce3118f94da7c9c1a,30
4,1,78,28,46,40,27,60,16,3638,Female,1806f9ff5fc2ab1ce3118f94da7c9c1a,25
4,1,79,46,64,45,72,45,72,630,Female,1806f9ff5fc2ab1ce3118f94da7c9c1a,47
4,1,80,46,28,81,27,65,27,21758,Female,1806f9ff5fc2ab1ce3118f94da7c9c1a,43
4,1,81,19,28,56,98,56,98,962,Female,1806f9ff5fc2ab1ce3118f94da7c9c1a,13
4,1,82,10,91,7,89,13,26,2422,Female,1806f9ff5fc2ab1ce3118f94da7c9c1a,10
4,1,83,55,73,25,72,35,17,3023,Female,1806f9ff5fc2ab1ce3118f94da7c9c1a,58
4,1,84,19,91,20,81,26,20,3898,Female,1806f9ff5fc2ab1ce3118f94da7c9c1a,20
4,1,85,19,55,22,70,26,8,4223,Female,1806f9ff5fc2ab1ce3118f94da7c9c1a,16
4,1,86,91,28,54,30,95,30,1851,Female,1806f9ff5fc2ab1ce3118f94da7c9c1a,93
4,1,87,82,91,85,83,53,41,2482,Female,1806f9ff5fc2ab1ce3118f94da7c9c1a,90
4,1,88,46,73,69,67,72,38,2291,Female,1806f9ff5fc2ab1ce3118f94da7c9c1a,48
4,1,89,91,73,69,66,38,28,3627,Female,1806f9ff5fc2ab1ce3118f94da7c9c1a,98
4,1,90,91,91,88,82,3,82,1420,Female,1806f9ff5fc2ab1ce3118f94da7c9c1a,100
4,1,91,55,28,65,9,4,80,4093,Female,1806f9ff5fc2ab1ce3118f94da7c9c1a,53
4,1,92,28,28,13,20,92,47,2653,Female,1806f9ff5fc2ab1ce3118f94da7c9c1a,23
4,1,93,55,37,12,23,98,98,2982,Female,1806f9ff5fc2ab1ce3118f94da7c9c1a,54
4,1,94,73,10,86,17,92,95,3203,Female,1806f9ff5fc2ab1ce3118f94da7c9c1a,71
4,1,95,19,46,14,14,5,87,1931,Female,1806f9ff5fc2ab1ce3118f94da7c9c1a,15
4,1,96,28,55,9,50,9,50,4359,Female,1806f9ff5fc2ab1ce3118f94da7c9c1a,26
4,1,97,37,64,70,31,81,83,2028,Female,1806f9ff5fc2ab1ce3118f94da7c9c1a,37
4,1,98,64,91,35,81,70,81,2935,Female,1806f9ff5fc2ab1ce3118f94da7c9c1a,70
4,1,99,28,10,29,20,91,71,2619,Female,1806f9ff5fc2ab1ce3118f94da7c9c1a,21
1,1,0,82,46,71,40,17,50,7283,Male,b9159cd99b2b103b02e2c6816bda5a26,85
1,1,1,10,46,22,37,12,98,5587,Male,b9159cd99b2b103b02e2c6816bda5a26,5
1,1,2,10,91,33,60,91,44,6168,Male,b9159cd99b2b103b02e2c6816bda5a26,10
1,1,3,91,55,43,50,68,16,6647,Male,b9159cd99b2b103b02e2c6816bda5a26,96
1,1,4,64,91,40,81,13,81,11527,Male,b9159cd99b2b103b02e2c6816bda5a26,70
1,1,5,19,46,18,27,85,74,6653,Male,b9159cd99b2b103b02e2c6816bda5a26,15
1,1,6,19,82,17,36,73,9,4475,Male,b9159cd99b2b103b02e2c6816bda5a26,19
1,1,7,73,19,69,21,27,12,6360,Male,b9159cd99b2b103b02e2c6816bda5a26,72
1,1,8,82,28,78,28,93,80,5679,Male,b9159cd99b2b103b02e2c6816bda5a26,83
1,1,9,82,73,82,32,48,2,4276,Male,b9159cd99b2b103b02e2c6816bda5a26,88
1,1,10,19,73,16,67,79,61,4334,Male,b9159cd99b2b103b02e2c6816bda5a26,18
1,1,11,55,10,70,24,93,8,3336,Male,b9159cd99b2b103b02e2c6816bda5a26,51
1,1,12,10,10,18,16,79,86,7248,Male,b9159cd99b2b103b02e2c6816bda5a26,1
1,1,13,10,64,17,43,22,25,4053,Male,b9159cd99b2b103b02e2c6816bda5a26,7
1,1,14,73,73,53,49,71,1,3863,Male,b9159cd99b2b103b02e2c6816bda5a26,78
1,1,15,10,19,27,20,77,48,7913,Male,b9159cd99b2b103b02e2c6816bda5a26,2
1,1,16,37,82,33,69,62,21,5241,Male,b9159cd99b2b103b02e2c6816bda5a26,39
1,1,17,82,91,62,77,75,40,8370,Male,b9159cd99b2b103b02e2c6816bda5a26,90
1,1,18,91,64,68,68,81,94,5610,Male,b9159cd99b2b103b02e2c6816bda5a26,97
1,1,19,28,73,24,57,59,35,6080,Male,b9159cd99b2b103b02e2c6816bda5a26,28
1,1,20,28,10,51,52,81,74,2625,Male,b9159cd99b2b103b02e2c6816bda5a26,21
1,1,21,91,10,75,16,12,40,5330,Male,b9159cd99b2b103b02e2c6816bda5a26,91
1,1,22,55,37,72,49,9,62,3994,Male,b9159cd99b2b103b02e2c6816bda5a26,54
1,1,23,91,73,69,69,27,55,2886,Male,b9159cd99b2b103b02e2c6816bda5a26,98
1,1,24,28,64,36,64,14,5,4624,Male,b9159cd99b2b103b02e2c6816bda5a26,27
1,1,25,64,55,56,56,49,67,103121,Male,b9159cd99b2b103b02e2c6816bda5a26,66
1,1,26,28,91,27,73,65,43,21189,Male,b9159cd99b2b103b02e2c6816bda5a26,30
1,1,27,46,91,41,84,28,33,25708,Male,b9159cd99b2b103b02e2c6816bda5a26,50
1,1,28,28,37,24,40,93,9,17775,Male,b9159cd99b2b103b02e2c6816bda5a26,24
1,1,29,37,91,24,92,88,32,7607,Male,b9159cd99b2b103b02e2c6816bda5a26,40
1,1,30,19,55,13,51,29,51,6927,Male,b9159cd99b2b103b02e2c6816bda5a26,16
1,1,31,91,37,26,13,4,45,46220,Male,b9159cd99b2b103b02e2c6816bda5a26,94
1,1,32,73,10,69,14,7,96,10405,Male,b9159cd99b2b103b02e2c6816bda5a26,71
1,1,33,28,19,21,16,21,93,9264,Male,b9159cd99b2b103b02e2c6816bda5a26,22
1,1,34,64,37,63,31,90,26,10185,Male,b9159cd99b2b103b02e2c6816bda5a26,64
1,1,35,19,64,16,65,31,65,7403,Male,b9159cd99b2b103b02e2c6816bda5a26,17
1,1,36,28,46,18,47,83,77,18234,Male,b9159cd99b2b103b02e2c6816bda5a26,25
1,1,37,46,46,45,53,54,6,11799,Male,b9159cd99b2b103b02e2c6816bda5a26,45
1,1,38,46,73,43,76,2,80,10172,Male,b9159cd99b2b103b02e2c6816bda5a26,48
1,1,39,91,28,89,24,30,19,5791,Male,b9159cd99b2b103b02e2c6816bda5a26,93
1,1,40,55,91,54,93,79,63,2784,Male,b9159cd99b2b103b02e2c6816bda5a26,60
1,1,41,82,55,85,57,28,48,5560,Male,b9159cd99b2b103b02e2c6816bda5a26,86
1,1,42,73,82,76,80,19,80,8641,Male,b9159cd99b2b103b02e2c6816bda5a26,79
1,1,43,10,82,7,79,57,79,7640,Male,b9159cd99b2b103b02e2c6816bda5a26,9
1,1,44,82,37,83,35,56,37,7884,Male,b9159cd99b2b103b02e2c6816bda5a26,84
1,1,45,19,28,18,31,93,97,6645,Male,b9159cd99b2b103b02e2c6816bda5a26,13
1,1,46,73,91,79,93,21,58,9294,Male,b9159cd99b2b103b02e2c6816bda5a26,80
1,1,47,82,19,84,22,22,38,6143,Male,b9159cd99b2b103b02e2c6816bda5a26,82
1,1,48,82,82,80,80,76,12,9266,Male,b9159cd99b2b103b02e2c6816bda5a26,89
1,1,49,37,55,28,57,83,42,27905,Male,b9159cd99b2b103b02e2c6816bda5a26,36
1,1,50,37,46,30,48,66,5,7811,Male,b9159cd99b2b103b02e2c6816bda5a26,35
1,1,51,19,91,21,89,94,47,5053,Male,b9159cd99b2b103b02e2c6816bda5a26,20
1,1,52,64,82,58,82,100,19,7127,Male,b9159cd99b2b103b02e2c6816bda5a26,69
1,1,53,82,64,79,62,78,93,6928,Male,b9159cd99b2b103b02e2c6816bda5a26,87
1,1,54,91,82,90,79,81,37,7288,Male,b9159cd99b2b103b02e2c6816bda5a26,99
1,1,55,64,73,60,79,47,46,4246,Male,b9159cd99b2b103b02e2c6816bda5a26,68
1,1,56,10,28,9,24,29,58,9558,Male,b9159cd99b2b103b02e2c6816bda5a26,3
1,1,57,37,64,31,61,31,48,5321,Male,b9159cd99b2b103b02e2c6816bda5a26,37
1,1,58,28,55,21,54,21,31,4271,Male,b9159cd99b2b103b02e2c6816bda5a26,26
1,1,59,55,46,51,42,20,3,5798,Male,b9159cd99b2b103b02e2c6816bda5a26,55
1,1,60,73,37,69,37,82,17,8073,Male,b9159cd99b2b103b02e2c6816bda5a26,74
1,1,61,64,10,59,9,15,19,7462,Male,b9159cd99b2b103b02e2c6816bda5a26,61
1,1,62,46,19,42,20,83,83,10781,Male,b9159cd99b2b103b02e2c6816bda5a26,42
1,1,63,19,10,16,10,70,1,9576,Male,b9159cd99b2b103b02e2c6816bda5a26,11
1,1,64,55,55,52,54,66,48,3066,Male,b9159cd99b2b103b02e2c6816bda5a26,56
1,1,65,91,91,92,90,81,50,3183,Male,b9159cd99b2b103b02e2c6816bda5a26,100
1,1,66,55,19,51,17,40,58,6759,Male,b9159cd99b2b103b02e2c6816bda5a26,52
1,1,67,46,55,36,49,17,67,4927,Male,b9159cd99b2b103b02e2c6816bda5a26,46
1,1,68,64,28,63,25,62,25,7065,Male,b9159cd99b2b103b02e2c6816bda5a26,63
1,1,69,55,82,49,73,84,73,6045,Male,b9159cd99b2b103b02e2c6816bda5a26,59
1,1,70,73,28,66,25,28,86,5181,Male,b9159cd99b2b103b02e2c6816bda5a26,73
1,1,71,37,73,31,66,83,84,4762,Male,b9159cd99b2b103b02e2c6816bda5a26,38
1,1,72,55,64,54,73,61,47,5088,Male,b9159cd99b2b103b02e2c6816bda5a26,57
1,1,73,10,55,95,9,95,9,1572,Male,b9159cd99b2b103b02e2c6816bda5a26,6
1,1,74,55,28,55,22,30,15,3638,Male,b9159cd99b2b103b02e2c6816bda5a26,53
1,1,75,46,64,48,65,48,25,3018,Male,b9159cd99b2b103b02e2c6816bda5a26,47
1,1,76,91,19,85,18,11,57,3468,Male,b9159cd99b2b103b02e2c6816bda5a26,92
1,1,77,73,64,80,60,4,35,3932,Male,b9159cd99b2b103b02e2c6816bda5a26,77
1,1,78,19,19,17,20,55,26,3585,Male,b9159cd99b2b103b02e2c6816bda5a26,12
1,1,79,46,28,55,25,33,40,7243,Male,b9159cd99b2b103b02e2c6816bda5a26,43
1,1,80,37,37,24,24,50,36,3037,Male,b9159cd99b2b103b02e2c6816bda5a26,34
1,1,81,73,55,66,45,34,92,5626,Male,b9159cd99b2b103b02e2c6816bda5a26,76
1,1,82,64,19,58,16,90,45,3289,Male,b9159cd99b2b103b02e2c6816bda5a26,62
1,1,83,46,37,49,32,10,43,10574,Male,b9159cd99b2b103b02e2c6816bda5a26,44
1,1,84,37,10,31,14,2,84,5559,Male,b9159cd99b2b103b02e2c6816bda5a26,31
1,1,85,55,73,52,73,67,27,7063,Male,b9159cd99b2b103b02e2c6816bda5a26,58
1,1,86,46,10,35,11,73,91,5644,Male,b9159cd99b2b103b02e2c6816bda5a26,41
1,1,87,10,73,21,79,68,50,19433,Male,b9159cd99b2b103b02e2c6816bda5a26,8
1,1,88,73,46,70,44,19,38,4402,Male,b9159cd99b2b103b02e2c6816bda5a26,75
1,1,89,28,82,22,74,99,71,3291,Male,b9159cd99b2b103b02e2c6816bda5a26,29
1,1,90,37,28,36,25,77,10,8918,Male,b9159cd99b2b103b02e2c6816bda5a26,33
1,1,91,46,82,45,88,59,88,4755,Male,b9159cd99b2b103b02e2c6816bda5a26,49
1,1,92,82,10,79,12,34,86,5038,Male,b9159cd99b2b103b02e2c6816bda5a26,81
1,1,93,19,37,21,37,10,74,11319,Male,b9159cd99b2b103b02e2c6816bda5a26,14
1,1,94,64,46,63,35,53,5,4439,Male,b9159cd99b2b103b02e2c6816bda5a26,65
1,1,95,91,46,83,39,100,15,4821,Male,b9159cd99b2b103b02e2c6816bda5a26,95
1,1,96,28,28,24,24,68,82,4062,Male,b9159cd99b2b103b02e2c6816bda5a26,23
1,1,97,64,64,71,74,90,61,2861,Male,b9159cd99b2b103b02e2c6816bda5a26,67
1,1,98,37,19,34,22,2,95,12079,Male,b9159cd99b2b103b02e2c6816bda5a26,32
1,1,99,10,37,6,30,6,63,5225,Male,b9159cd99b2b103b02e2c6816bda5a26,4
1,2,0,37,28,32,26,96,53,13574,Male,b9159cd99b2b103b02e2c6816bda5a26,33
1,2,1,10,91,10,86,51,3,3192,Male,b9159cd99b2b103b02e2c6816bda5a26,10
1,2,2,46,37,50,28,81,9,7633,Male,b9159cd99b2b103b02e2c6816bda5a26,44
1,2,3,28,64,29,64,30,42,5252,Male,b9159cd99b2b103b02e2c6816bda5a26,27
1,2,4,91,73,87,67,9,34,4727,Male,b9159cd99b2b103b02e2c6816bda5a26,98
1,2,5,64,10,64,12,93,19,3045,Male,b9159cd99b2b103b02e2c6816bda5a26,61
1,2,6,91,91,88,86,85,57,2597,Male,b9159cd99b2b103b02e2c6816bda5a26,100
1,2,7,73,10,81,14,97,23,6832,Male,b9159cd99b2b103b02e2c6816bda5a26,71
1,2,8,19,37,21,37,89,32,7164,Male,b9159cd99b2b103b02e2c6816bda5a26,14
1,2,9,73,55,76,50,24,91,4948,Male,b9159cd99b2b103b02e2c6816bda5a26,76
1,2,10,64,37,64,26,93,82,3997,Male,b9159cd99b2b103b02e2c6816bda5a26,64
1,2,11,55,73,59,70,49,15,4980,Male,b9159cd99b2b103b02e2c6816bda5a26,58
1,2,12,37,91,36,89,38,60,3642,Male,b9159cd99b2b103b02e2c6816bda5a26,40
1,2,13,82,46,82,41,48,10,4003,Male,b9159cd99b2b103b02e2c6816bda5a26,85
1,2,14,28,10,25,8,91,47,4433,Male,b9159cd99b2b103b02e2c6816bda5a26,21
1,2,15,73,19,76,18,73,18,3510,Male,b9159cd99b2b103b02e2c6816bda5a26,72
1,2,16,91,19,92,10,52,12,2578,Male,b9159cd99b2b103b02e2c6816bda5a26,92
1,2,17,19,82,8,82,64,57,2946,Male,b9159cd99b2b103b02e2c6816bda5a26,19
1,2,18,19,28,17,27,55,86,6332,Male,b9159cd99b2b103b02e2c6816bda5a26,13
1,2,19,82,28,81,26,47,87,3964,Male,b9159cd99b2b103b02e2c6816bda5a26,83
1,2,20,19,55,15,56,54,56,3135,Male,b9159cd99b2b103b02e2c6816bda5a26,16
1,2,21,28,82,18,78,12,80,5466,Male,b9159cd99b2b103b02e2c6816bda5a26,29
1,2,22,46,55,57,59,21,62,12004,Male,b9159cd99b2b103b02e2c6816bda5a26,46
1,2,23,37,73,23,74,72,44,3270,Male,b9159cd99b2b103b02e2c6816bda5a26,38
1,2,24,10,46,12,48,12,100,5076,Male,b9159cd99b2b103b02e2c6816bda5a26,5
1,2,25,19,91,20,93,61,93,8649,Male,b9159cd99b2b103b02e2c6816bda5a26,20
1,2,26,37,46,39,50,79,56,7021,Male,b9159cd99b2b103b02e2c6816bda5a26,35
1,2,27,55,37,61,29,19,29,6966,Male,b9159cd99b2b103b02e2c6816bda5a26,54
1,2,28,55,10,58,14,9,52,4663,Male,b9159cd99b2b103b02e2c6816bda5a26,51
1,2,29,91,37,92,18,25,60,3661,Male,b9159cd99b2b103b02e2c6816bda5a26,94
1,2,30,82,37,85,30,63,1,3852,Male,b9159cd99b2b103b02e2c6816bda5a26,84
1,2,31,82,19,84,15,64,64,2607,Male,b9159cd99b2b103b02e2c6816bda5a26,82
1,2,32,55,19,61,13,51,7,7234,Male,b9159cd99b2b103b02e2c6816bda5a26,52
1,2,33,73,82,72,85,59,59,7618,Male,b9159cd99b2b103b02e2c6816bda5a26,79
1,2,34,28,46,36,60,15,10,3916,Male,b9159cd99b2b103b02e2c6816bda5a26,25
1,2,35,55,64,56,73,9,6,4294,Male,b9159cd99b2b103b02e2c6816bda5a26,57
1,2,36,46,91,40,84,74,60,4195,Male,b9159cd99b2b103b02e2c6816bda5a26,50
1,2,37,28,91,22,94,6,37,5157,Male,b9159cd99b2b103b02e2c6816bda5a26,30
1,2,38,91,10,89,10,89,23,2543,Male,b9159cd99b2b103b02e2c6816bda5a26,91
1,2,39,55,55,58,56,7,56,2422,Male,b9159cd99b2b103b02e2c6816bda5a26,56
1,2,40,10,55,12,58,12,50,2527,Male,b9159cd99b2b103b02e2c6816bda5a26,6
1,2,41,64,91,66,88,98,5,4911,Male,b9159cd99b2b103b02e2c6816bda5a26,70
1,2,42,46,73,40,79,4,87,5207,Male,b9159cd99b2b103b02e2c6816bda5a26,48
1,2,43,55,46,60,43,38,20,5133,Male,b9159cd99b2b103b02e2c6816bda5a26,55
1,2,44,55,28,60,17,95,54,5786,Male,b9159cd99b2b103b02e2c6816bda5a26,53
1,2,45,46,28,48,26,87,83,4265,Male,b9159cd99b2b103b02e2c6816bda5a26,43
1,2,46,73,91,66,85,60,73,7106,Male,b9159cd99b2b103b02e2c6816bda5a26,80
1,2,47,28,73,28,83,82,57,5697,Male,b9159cd99b2b103b02e2c6816bda5a26,28
1,2,48,73,73,78,70,89,27,4279,Male,b9159cd99b2b103b02e2c6816bda5a26,78
1,2,49,37,19,32,14,79,51,5474,Male,b9159cd99b2b103b02e2c6816bda5a26,32
1,2,50,10,19,10,24,7,27,12411,Male,b9159cd99b2b103b02e2c6816bda5a26,2
1,2,51,73,37,74,33,83,3,4665,Male,b9159cd99b2b103b02e2c6816bda5a26,74
1,2,52,37,37,35,45,16,83,4012,Male,b9159cd99b2b103b02e2c6816bda5a26,34
1,2,53,46,64,58,76,11,51,2565,Male,b9159cd99b2b103b02e2c6816bda5a26,47
1,2,54,64,19,71,21,65,8,3900,Male,b9159cd99b2b103b02e2c6816bda5a26,62
1,2,55,19,19,23,16,79,83,5892,Male,b9159cd99b2b103b02e2c6816bda5a26,12
1,2,56,46,19,45,12,16,39,6663,Male,b9159cd99b2b103b02e2c6816bda5a26,42
1,2,57,46,46,45,39,15,51,3489,Male,b9159cd99b2b103b02e2c6816bda5a26,45
1,2,58,82,64,80,63,15,86,4525,Male,b9159cd99b2b103b02e2c6816bda5a26,87
1,2,59,91,82,85,79,15,34,2601,Male,b9159cd99b2b103b02e2c6816bda5a26,99
1,2,60,64,73,64,78,76,17,3855,Male,b9159cd99b2b103b02e2c6816bda5a26,68
1,2,61,19,73,22,81,67,81,3229,Male,b9159cd99b2b103b02e2c6816bda5a26,18
1,2,62,10,73,14,77,66,45,4295,Male,b9159cd99b2b103b02e2c6816bda5a26,8
1,2,63,73,46,78,39,63,8,4982,Male,b9159cd99b2b103b02e2c6816bda5a26,75
1,2,64,19,46,24,45,34,35,4637,Male,b9159cd99b2b103b02e2c6816bda5a26,15
1,2,65,10,64,14,58,28,98,4974,Male,b9159cd99b2b103b02e2c6816bda5a26,7
1,2,66,82,10,84,16,71,97,2980,Male,b9159cd99b2b103b02e2c6816bda5a26,81
1,2,67,19,64,15,61,52,10,3374,Male,b9159cd99b2b103b02e2c6816bda5a26,17
1,2,68,37,64,33,65,16,80,5975,Male,b9159cd99b2b103b02e2c6816bda5a26,37
1,2,69,28,37,20,33,11,46,4260,Male,b9159cd99b2b103b02e2c6816bda5a26,24
1,2,70,46,10,37,9,100,28,4453,Male,b9159cd99b2b103b02e2c6816bda5a26,41
1,2,71,10,10,9,15,36,84,5385,Male,b9159cd99b2b103b02e2c6816bda5a26,1
1,2,72,37,10,20,10,20,28,4192,Male,b9159cd99b2b103b02e2c6816bda5a26,31
1,2,73,82,91,81,92,20,19,3278,Male,b9159cd99b2b103b02e2c6816bda5a26,90
1,2,74,91,64,93,61,20,15,4638,Male,b9159cd99b2b103b02e2c6816bda5a26,97
1,2,75,10,37,12,31,12,75,2592,Male,b9159cd99b2b103b02e2c6816bda5a26,4
1,2,76,91,46,92,37,6,64,5114,Male,b9159cd99b2b103b02e2c6816bda5a26,95
1,2,77,91,55,91,55,35,36,2379,Male,b9159cd99b2b103b02e2c6816bda5a26,96
1,2,78,82,73,81,66,17,34,6687,Male,b9159cd99b2b103b02e2c6816bda5a26,88
1,2,79,37,55,28,54,89,89,4044,Male,b9159cd99b2b103b02e2c6816bda5a26,36
1,2,80,64,46,60,36,60,83,2633,Male,b9159cd99b2b103b02e2c6816bda5a26,65
1,2,81,82,55,74,56,74,62,9779,Male,b9159cd99b2b103b02e2c6816bda5a26,86
1,2,82,28,19,25,10,60,40,3925,Male,b9159cd99b2b103b02e2c6816bda5a26,22
1,2,83,73,64,74,61,73,91,8275,Male,b9159cd99b2b103b02e2c6816bda5a26,77
1,2,84,28,55,19,55,62,28,4743,Male,b9159cd99b2b103b02e2c6816bda5a26,26
1,2,85,64,64,71,60,22,28,4151,Male,b9159cd99b2b103b02e2c6816bda5a26,67
1,2,86,46,82,36,86,55,86,5486,Male,b9159cd99b2b103b02e2c6816bda5a26,49
1,2,87,73,28,77,34,86,17,8350,Male,b9159cd99b2b103b02e2c6816bda5a26,73
1,2,88,28,28,20,18,20,45,3446,Male,b9159cd99b2b103b02e2c6816bda5a26,23
1,2,89,37,82,27,80,27,61,3819,Male,b9159cd99b2b103b02e2c6816bda5a26,39
1,2,90,91,28,92,30,37,30,8213,Male,b9159cd99b2b103b02e2c6816bda5a26,93
1,2,91,55,82,57,83,43,75,3188,Male,b9159cd99b2b103b02e2c6816bda5a26,59
1,2,92,55,91,58,89,79,1,2523,Male,b9159cd99b2b103b02e2c6816bda5a26,60
1,2,93,64,82,61,79,28,2,4500,Male,b9159cd99b2b103b02e2c6816bda5a26,69
1,2,94,82,82,86,89,87,89,4007,Male,b9159cd99b2b103b02e2c6816bda5a26,89
1,2,95,10,82,13,88,26,41,4098,Male,b9159cd99b2b103b02e2c6816bda5a26,9
1,2,96,64,28,70,25,38,52,4404,Male,b9159cd99b2b103b02e2c6816bda5a26,63
1,2,97,10,28,13,35,69,42,3987,Male,b9159cd99b2b103b02e2c6816bda5a26,3
1,2,98,64,55,67,48,40,17,2702,Male,b9159cd99b2b103b02e2c6816bda5a26,66
1,2,99,19,10,16,9,54,69,4878,Male,b9159cd99b2b103b02e2c6816bda5a26,11
1,1,0,28,73,64,58,24,29,4708,Male,503447d79af937496e9c132325522ee7,28
1,1,1,28,10,29,28,44,33,3606,Male,503447d79af937496e9c132325522ee7,21
1,1,2,73,19,80,16,34,43,3312,Male,503447d79af937496e9c132325522ee7,72
1,1,3,46,37,44,23,86,46,3320,Male,503447d79af937496e9c132325522ee7,44
1,1,4,82,10,55,24,25,11,4594,Male,503447d79af937496e9c132325522ee7,81
1,1,5,64,55,61,44,96,1,4646,Male,503447d79af937496e9c132325522ee7,66
1,1,6,64,19,58,36,77,58,2913,Male,503447d79af937496e9c132325522ee7,62
1,1,7,46,10,48,28,64,43,4041,Male,503447d79af937496e9c132325522ee7,41
1,1,8,37,19,48,27,15,51,16063,Male,503447d79af937496e9c132325522ee7,32
1,1,9,82,46,64,39,82,22,2938,Male,503447d79af937496e9c132325522ee7,85
1,1,10,82,64,49,38,73,69,3423,Male,503447d79af937496e9c132325522ee7,87
1,1,11,55,37,54,38,15,44,252548,Male,503447d79af937496e9c132325522ee7,54
1,1,12,91,82,96,74,86,3,15240,Male,503447d79af937496e9c132325522ee7,99
1,1,13,55,91,86,80,4,100,8852,Male,503447d79af937496e9c132325522ee7,60
1,1,14,64,82,46,76,46,76,1345,Male,503447d79af937496e9c132325522ee7,69
1,1,15,64,73,64,73,29,43,11669,Male,503447d79af937496e9c132325522ee7,68
1,1,16,28,28,28,29,10,59,12445,Male,503447d79af937496e9c132325522ee7,23
1,1,17,37,37,29,33,14,87,3692,Male,503447d79af937496e9c132325522ee7,34
1,1,18,10,10,11,12,16,92,3911,Male,503447d79af937496e9c132325522ee7,1
1,1,19,19,73,25,84,86,30,7951,Male,503447d79af937496e9c132325522ee7,18
1,1,20,46,82,42,81,97,66,582547,Male,503447d79af937496e9c132325522ee7,49
1,1,21,55,19,71,45,39,34,4271,Male,503447d79af937496e9c132325522ee7,52
1,1,22,19,91,41,79,48,20,5927,Male,503447d79af937496e9c132325522ee7,20
1,1,23,46,46,57,59,7,80,2226,Male,503447d79af937496e9c132325522ee7,45
1,1,24,10,55,10,63,36,28,4688,Male,503447d79af937496e9c132325522ee7,6
1,1,25,91,46,87,59,37,7,4416,Male,503447d79af937496e9c132325522ee7,95
1,1,26,73,82,74,81,16,81,5043,Male,503447d79af937496e9c132325522ee7,79
1,1,27,19,37,25,46,9,91,5991,Male,503447d79af937496e9c132325522ee7,14
1,1,28,10,28,12,29,27,32,5983,Male,503447d79af937496e9c132325522ee7,3
1,1,29,37,28,36,24,88,62,5350,Male,503447d79af937496e9c132325522ee7,33
1,1,30,73,64,71,64,71,24,4017,Male,503447d79af937496e9c132325522ee7,77
1,1,31,73,46,67,50,72,87,6534,Male,503447d79af937496e9c132325522ee7,75
1,1,32,28,37,25,36,8,29,4298,Male,503447d79af937496e9c132325522ee7,24
1,1,33,64,10,67,12,46,5,3721,Male,503447d79af937496e9c132325522ee7,61
1,1,34,64,46,65,48,2,48,4797,Male,503447d79af937496e9c132325522ee7,65
1,1,35,91,19,90,17,70,36,4096,Male,503447d79af937496e9c132325522ee7,92
1,1,36,37,64,35,70,30,36,2441,Male,503447d79af937496e9c132325522ee7,37
1,1,37,55,64,66,73,37,15,2814,Male,503447d79af937496e9c132325522ee7,57
1,1,38,37,46,35,46,49,71,3584,Male,503447d79af937496e9c132325522ee7,35
1,1,39,55,82,59,82,91,78,4270,Male,503447d79af937496e9c132325522ee7,59
1,1,40,64,28,67,25,83,7,6601,Male,503447d79af937496e9c132325522ee7,63
1,1,41,55,10,62,10,42,13,2701,Male,503447d79af937496e9c132325522ee7,51
1,1,42,37,91,47,88,5,43,3350,Male,503447d79af937496e9c132325522ee7,40
1,1,43,55,28,63,21,21,2,3871,Male,503447d79af937496e9c132325522ee7,53
1,1,44,19,28,20,29,20,38,4906,Male,503447d79af937496e9c132325522ee7,13
1,1,45,91,91,91,91,68,94,4118,Male,503447d79af937496e9c132325522ee7,100
1,1,46,28,64,21,64,39,64,7540,Male,503447d79af937496e9c132325522ee7,27
1,1,47,91,73,89,72,44,90,3647,Male,503447d79af937496e9c132325522ee7,98
1,1,48,28,19,30,18,39,88,2845,Male,503447d79af937496e9c132325522ee7,22
1,1,49,46,19,51,20,88,76,3318,Male,503447d79af937496e9c132325522ee7,42
1,1,50,64,64,63,64,93,74,4389,Male,503447d79af937496e9c132325522ee7,67
1,1,51,28,55,27,71,30,40,2327,Male,503447d79af937496e9c132325522ee7,26
1,1,52,82,73,75,63,75,83,3088,Male,503447d79af937496e9c132325522ee7,88
1,1,53,91,10,87,13,29,38,2444,Male,503447d79af937496e9c132325522ee7,91
1,1,54,73,91,65,90,81,62,2581,Male,503447d79af937496e9c132325522ee7,80
1,1,55,82,55,75,63,3,96,5319,Male,503447d79af937496e9c132325522ee7,86
1,1,56,19,46,19,51,54,23,5035,Male,503447d79af937496e9c132325522ee7,15
1,1,57,37,10,35,11,35,57,3579,Male,503447d79af937496e9c132325522ee7,31
1,1,58,82,28,78,24,41,80,3028,Male,503447d79af937496e9c132325522ee7,83
1,1,59,10,37,17,39,51,46,3080,Male,503447d79af937496e9c132325522ee7,4
1,1,60,19,55,24,63,13,33,4910,Male,503447d79af937496e9c132325522ee7,16
1,1,61,73,37,75,39,11,34,4297,Male,503447d79af937496e9c132325522ee7,74
1,1,62,55,46,64,52,52,21,3092,Male,503447d79af937496e9c132325522ee7,55
1,1,63,10,73,16,70,86,1,3289,Male,503447d79af937496e9c132325522ee7,8
1,1,64,28,82,27,74,80,69,3932,Male,503447d79af937496e9c132325522ee7,29
1,1,65,46,91,47,86,35,3,3805,Male,503447d79af937496e9c132325522ee7,50
1,1,66,82,19,80,18,80,63,4008,Male,503447d79af937496e9c132325522ee7,82
1,1,67,10,46,12,51,40,65,3354,Male,503447d79af937496e9c132325522ee7,5
1,1,68,19,64,21,66,2,66,2404,Male,503447d79af937496e9c132325522ee7,17
1,1,69,82,37,82,42,92,35,3951,Male,503447d79af937496e9c132325522ee7,84
1,1,70,46,28,49,28,51,100,5020,Male,503447d79af937496e9c132325522ee7,43
1,1,71,37,82,33,78,23,63,3314,Male,503447d79af937496e9c132325522ee7,39
1,1,72,73,73,73,73,1,90,2386,Male,503447d79af937496e9c132325522ee7,78
1,1,73,91,55,88,60,62,11,3748,Male,503447d79af937496e9c132325522ee7,96
1,1,74,73,55,78,63,25,63,2727,Male,503447d79af937496e9c132325522ee7,76
1,1,75,73,28,79,29,56,96,2662,Male,503447d79af937496e9c132325522ee7,73
1,1,76,28,91,27,84,79,55,3225,Male,503447d79af937496e9c132325522ee7,30
1,1,77,91,37,87,31,50,71,2545,Male,503447d79af937496e9c132325522ee7,94
1,1,78,64,37,69,39,45,54,2866,Male,503447d79af937496e9c132325522ee7,64
1,1,79,10,91,16,85,72,44,2860,Male,503447d79af937496e9c132325522ee7,10
1,1,80,82,91,79,92,23,55,2756,Male,503447d79af937496e9c132325522ee7,90
1,1,81,10,19,14,21,34,47,3219,Male,503447d79af937496e9c132325522ee7,2
1,1,82,19,19,25,25,75,84,3599,Male,503447d79af937496e9c132325522ee7,12
1,1,83,19,82,21,81,73,19,3284,Male,503447d79af937496e9c132325522ee7,19
1,1,84,91,64,87,59,10,90,4752,Male,503447d79af937496e9c132325522ee7,97
1,1,85,46,55,53,65,10,31,3295,Male,503447d79af937496e9c132325522ee7,46
1,1,86,28,46,53,27,82,46,2576,Male,503447d79af937496e9c132325522ee7,25
1,1,87,82,82,82,83,57,45,4573,Male,503447d79af937496e9c132325522ee7,89
1,1,88,91,28,91,30,37,98,3295,Male,503447d79af937496e9c132325522ee7,93
1,1,89,73,10,76,12,17,76,4040,Male,503447d79af937496e9c132325522ee7,71
1,1,90,46,64,49,68,27,57,3061,Male,503447d79af937496e9c132325522ee7,47
1,1,91,46,73,44,73,90,8,4310,Male,503447d79af937496e9c132325522ee7,48
1,1,92,19,10,24,15,11,39,5540,Male,503447d79af937496e9c132325522ee7,11
1,1,93,55,55,63,63,46,26,4842,Male,503447d79af937496e9c132325522ee7,56
1,1,94,55,73,58,76,86,2,2791,Male,503447d79af937496e9c132325522ee7,58
1,1,95,10,64,16,67,62,16,5942,Male,503447d79af937496e9c132325522ee7,7
1,1,96,10,82,12,81,17,25,2176,Male,503447d79af937496e9c132325522ee7,9
1,1,97,37,73,21,74,6,74,3059,Male,503447d79af937496e9c132325522ee7,38
1,1,98,64,91,63,90,91,28,2830,Male,503447d79af937496e9c132325522ee7,70
1,1,99,37,55,41,66,44,56,4711,Male,503447d79af937496e9c132325522ee7,36
1,2,0,55,55,69,95,50,95,4510,Male,503447d79af937496e9c132325522ee7,56
1,2,1,19,10,19,9,31,22,2644,Male,503447d79af937496e9c132325522ee7,11
1,2,2,64,91,66,90,29,62,3006,Male,503447d79af937496e9c132325522ee7,70
1,2,3,10,73,9,74,49,47,3870,Male,503447d79af937496e9c132325522ee7,8
1,2,4,55,64,57,69,22,19,3956,Male,503447d79af937496e9c132325522ee7,57
1,2,5,73,46,75,47,22,69,3987,Male,503447d79af937496e9c132325522ee7,75
1,2,6,73,10,72,9,72,53,4379,Male,503447d79af937496e9c132325522ee7,71
1,2,7,73,73,71,71,80,73,3175,Male,503447d79af937496e9c132325522ee7,78
1,2,8,10,37,14,41,20,34,3236,Male,503447d79af937496e9c132325522ee7,4
1,2,9,46,46,53,52,91,93,2948,Male,503447d79af937496e9c132325522ee7,45
1,2,10,64,19,68,23,54,98,3215,Male,503447d79af937496e9c132325522ee7,62
1,2,11,28,64,31,67,84,48,3169,Male,503447d79af937496e9c132325522ee7,27
1,2,12,91,55,90,61,71,70,2386,Male,503447d79af937496e9c132325522ee7,96
1,2,13,55,10,64,9,73,61,7331,Male,503447d79af937496e9c132325522ee7,51
1,2,14,37,82,35,72,80,86,3564,Male,503447d79af937496e9c132325522ee7,39
1,2,15,19,19,21,21,21,47,3584,Male,503447d79af937496e9c132325522ee7,12
1,2,16,10,82,11,73,52,11,22861,Male,503447d79af937496e9c132325522ee7,9
1,2,17,64,82,62,74,41,86,3213,Male,503447d79af937496e9c132325522ee7,69
1,2,18,64,55,69,58,48,52,3615,Male,503447d79af937496e9c132325522ee7,66
1,2,19,64,46,72,44,18,69,16852,Male,503447d79af937496e9c132325522ee7,65
1,2,20,91,37,86,45,100,6,4025,Male,503447d79af937496e9c132325522ee7,94
1,2,21,73,55,67,63,8,45,4326,Male,503447d79af937496e9c132325522ee7,76
1,2,22,73,37,72,34,50,2,3265,Male,503447d79af937496e9c132325522ee7,74
1,2,23,55,46,59,45,83,75,1955,Male,503447d79af937496e9c132325522ee7,55
1,2,24,28,19,99,46,99,46,18651,Male,503447d79af937496e9c132325522ee7,22
1,2,25,82,10,73,7,9,66,3551,Male,503447d79af937496e9c132325522ee7,81
1,2,26,10,64,10,63,99,69,2817,Male,503447d79af937496e9c132325522ee7,7
1,2,27,46,91,50,87,44,10,3650,Male,503447d79af937496e9c132325522ee7,50
1,2,28,64,10,66,11,75,2,2641,Male,503447d79af937496e9c132325522ee7,61
1,2,29,82,37,78,34,33,85,5378,Male,503447d79af937496e9c132325522ee7,84
1,2,30,28,91,32,88,32,61,3458,Male,503447d79af937496e9c132325522ee7,30
1,2,31,91,64,89,62,4,53,2794,Male,503447d79af937496e9c132325522ee7,97
1,2,32,73,82,71,80,93,19,3689,Male,503447d79af937496e9c132325522ee7,79
1,2,33,37,10,34,9,76,60,5431,Male,503447d79af937496e9c132325522ee7,31
1,2,34,28,73,4,72,4,72,22948,Male,503447d79af937496e9c132325522ee7,28
1,2,35,55,73,65,74,41,29,3153,Male,503447d79af937496e9c132325522ee7,58
1,2,36,55,91,60,90,63,36,3360,Male,503447d79af937496e9c132325522ee7,60
1,2,37,55,37,63,39,64,84,3424,Male,503447d79af937496e9c132325522ee7,54
1,2,38,10,10,9,9,53,34,202219,Male,503447d79af937496e9c132325522ee7,1
1,2,39,91,10,90,8,23,51,3434,Male,503447d79af937496e9c132325522ee7,91
1,2,40,37,46,33,51,41,18,4855,Male,503447d79af937496e9c132325522ee7,35
1,2,41,82,19,80,20,34,75,4391,Male,503447d79af937496e9c132325522ee7,82
1,2,42,46,28,50,28,22,57,3532,Male,503447d79af937496e9c132325522ee7,43
1,2,43,64,73,64,74,93,8,3309,Male,503447d79af937496e9c132325522ee7,68
1,2,44,91,82,87,78,97,20,3391,Male,503447d79af937496e9c132325522ee7,99
1,2,45,28,55,32,63,5,74,6376,Male,503447d79af937496e9c132325522ee7,26
1,2,46,19,37,22,39,85,80,8649,Male,503447d79af937496e9c132325522ee7,14
1,2,47,37,28,40,26,41,46,2532,Male,503447d79af937496e9c132325522ee7,33
1,2,48,37,64,37,66,52,89,3223,Male,503447d79af937496e9c132325522ee7,37
1,2,49,10,55,11,63,7,83,5392,Male,503447d79af937496e9c132325522ee7,6
1,2,50,82,82,80,78,99,3,2334,Male,503447d79af937496e9c132325522ee7,89
1,2,51,73,19,74,19,51,94,4890,Male,503447d79af937496e9c132325522ee7,72
1,2,52,46,73,48,77,48,53,12458,Male,503447d79af937496e9c132325522ee7,48
1,2,53,73,91,75,90,69,30,4073,Male,503447d79af937496e9c132325522ee7,80
1,2,54,46,37,49,39,41,61,2794,Male,503447d79af937496e9c132325522ee7,44
1,2,55,91,28,89,32,56,27,3256,Male,503447d79af937496e9c132325522ee7,93
1,2,56,55,82,64,81,15,71,4403,Male,503447d79af937496e9c132325522ee7,59
1,2,57,37,55,65,76,39,75,6835,Male,503447d79af937496e9c132325522ee7,36
1,2,58,64,64,65,66,92,74,2036,Male,503447d79af937496e9c132325522ee7,67
1,2,59,46,64,52,67,35,29,5355,Male,503447d79af937496e9c132325522ee7,47
1,2,60,46,82,47,76,90,48,3110,Male,503447d79af937496e9c132325522ee7,49
1,2,61,82,91,76,88,19,17,3862,Male,503447d79af937496e9c132325522ee7,90
1,2,62,37,37,39,38,29,92,3958,Male,503447d79af937496e9c132325522ee7,34
1,2,63,10,28,9,23,8,91,6037,Male,503447d79af937496e9c132325522ee7,3
1,2,64,28,10,23,12,49,25,4242,Male,503447d79af937496e9c132325522ee7,21
1,2,65,28,28,30,30,10,64,3007,Male,503447d79af937496e9c132325522ee7,23
1,2,66,55,19,61,18,61,31,8569,Male,503447d79af937496e9c132325522ee7,52
1,2,67,82,28,81,28,39,77,3623,Male,503447d79af937496e9c132325522ee7,83
1,2,68,73,28,70,33,95,36,3181,Male,503447d79af937496e9c132325522ee7,73
1,2,69,10,46,72,28,72,25,2044,Male,503447d79af937496e9c132325522ee7,5
1,2,70,82,64,74,58,31,72,2956,Male,503447d79af937496e9c132325522ee7,87
1,2,71,19,64,21,65,46,33,2629,Male,503447d79af937496e9c132325522ee7,17
1,2,72,10,91,11,85,24,27,3824,Male,503447d79af937496e9c132325522ee7,10
1,2,73,46,55,50,64,11,56,2052,Male,503447d79af937496e9c132325522ee7,46
1,2,74,91,91,90,90,1,7,3817,Male,503447d79af937496e9c132325522ee7,100
1,2,75,19,46,17,53,8,38,3520,Male,503447d79af937496e9c132325522ee7,15
1,2,76,37,91,39,89,54,67,5244,Male,503447d79af937496e9c132325522ee7,40
1,2,77,73,64,70,62,81,39,3755,Male,503447d79af937496e9c132325522ee7,77
1,2,78,28,46,28,52,40,98,2903,Male,503447d79af937496e9c132325522ee7,25
1,2,79,19,91,22,90,65,68,4028,Male,503447d79af937496e9c132325522ee7,20
1,2,80,64,28,66,28,63,30,2653,Male,503447d79af937496e9c132325522ee7,63
1,2,81,82,55,76,58,55,65,4670,Male,503447d79af937496e9c132325522ee7,86
1,2,82,19,28,22,34,6,34,3846,Male,503447d79af937496e9c132325522ee7,13
1,2,83,37,73,32,72,27,61,4667,Male,503447d79af937496e9c132325522ee7,38
1,2,84,46,19,50,23,29,66,3673,Male,503447d79af937496e9c132325522ee7,42
1,2,85,46,10,49,12,9,89,3476,Male,503447d79af937496e9c132325522ee7,41
1,2,86,91,73,90,68,90,64,2802,Male,503447d79af937496e9c132325522ee7,98
1,2,87,55,28,63,33,74,99,2362,Male,503447d79af937496e9c132325522ee7,53
1,2,88,37,19,38,19,31,80,4225,Male,503447d79af937496e9c132325522ee7,32
1,2,89,28,37,28,42,75,16,4200,Male,503447d79af937496e9c132325522ee7,24
1,2,90,82,73,77,66,13,76,3186,Male,503447d79af937496e9c132325522ee7,88
1,2,91,64,37,86,53,86,53,33228,Male,503447d79af937496e9c132325522ee7,64
1,2,92,19,55,19,62,52,53,6885,Male,503447d79af937496e9c132325522ee7,16
1,2,93,82,46,89,44,93,81,15182,Male,503447d79af937496e9c132325522ee7,85
1,2,94,19,73,20,67,71,89,2638,Male,503447d79af937496e9c132325522ee7,18
1,2,95,91,19,24,67,89,66,2864,Male,503447d79af937496e9c132325522ee7,92
1,2,96,10,19,12,26,66,82,2662,Male,503447d79af937496e9c132325522ee7,2
1,2,97,19,82,22,73,92,41,2770,Male,503447d79af937496e9c132325522ee7,19
1,2,98,91,46,89,45,64,52,3553,Male,503447d79af937496e9c132325522ee7,95
1,2,99,28,82,35,78,2,68,3561,Male,503447d79af937496e9c132325522ee7,29
4,1,0,28,64,25,57,69,65,15165,Female,dc21b7b15e50f7fd90b3171c6c661421,27
4,1,1,91,46,81,71,98,96,11719,Female,dc21b7b15e50f7fd90b3171c6c661421,95
4,1,2,55,46,78,50,90,12,15031,Female,dc21b7b15e50f7fd90b3171c6c661421,55
4,1,3,91,73,92,71,80,68,13900,Female,dc21b7b15e50f7fd90b3171c6c661421,98
4,1,4,73,19,93,37,73,18,19032,Female,dc21b7b15e50f7fd90b3171c6c661421,72
4,1,5,10,55,7,38,11,95,22306,Female,dc21b7b15e50f7fd90b3171c6c661421,6
4,1,6,82,46,83,36,69,29,13631,Female,dc21b7b15e50f7fd90b3171c6c661421,85
4,1,7,37,28,30,33,41,64,8144,Female,dc21b7b15e50f7fd90b3171c6c661421,33
4,1,8,19,64,20,57,29,63,7304,Female,dc21b7b15e50f7fd90b3171c6c661421,17
4,1,9,10,46,16,38,39,4,21688,Female,dc21b7b15e50f7fd90b3171c6c661421,5
4,1,10,55,28,73,31,85,83,10952,Female,dc21b7b15e50f7fd90b3171c6c661421,53
4,1,11,37,37,55,33,40,66,7255,Female,dc21b7b15e50f7fd90b3171c6c661421,34
4,1,12,64,73,53,33,22,20,5223,Female,dc21b7b15e50f7fd90b3171c6c661421,68
4,1,13,46,82,58,86,72,48,14246,Female,dc21b7b15e50f7fd90b3171c6c661421,49
4,1,14,55,19,65,21,93,5,16675,Female,dc21b7b15e50f7fd90b3171c6c661421,52
4,1,15,10,73,9,88,3,59,13918,Female,dc21b7b15e50f7fd90b3171c6c661421,8
4,1,16,91,10,89,9,81,48,11241,Female,dc21b7b15e50f7fd90b3171c6c661421,91
4,1,17,64,82,82,73,73,75,10210,Female,dc21b7b15e50f7fd90b3171c6c661421,69
4,1,18,10,37,26,54,37,65,10014,Female,dc21b7b15e50f7fd90b3171c6c661421,4
4,1,19,46,19,38,45,13,56,16206,Female,dc21b7b15e50f7fd90b3171c6c661421,42
4,1,20,10,19,16,25,87,56,6620,Female,dc21b7b15e50f7fd90b3171c6c661421,2
4,1,21,10,64,15,55,27,83,9346,Female,dc21b7b15e50f7fd90b3171c6c661421,7
4,1,22,73,73,68,65,24,65,9216,Female,dc21b7b15e50f7fd90b3171c6c661421,78
4,1,23,91,19,94,15,61,1,10128,Female,dc21b7b15e50f7fd90b3171c6c661421,92
4,1,24,64,64,85,55,30,59,12304,Female,dc21b7b15e50f7fd90b3171c6c661421,67
4,1,25,73,82,72,78,96,51,8733,Female,dc21b7b15e50f7fd90b3171c6c661421,79
4,1,26,19,82,21,82,38,70,12859,Female,dc21b7b15e50f7fd90b3171c6c661421,19
4,1,27,46,10,16,14,43,73,7154,Female,dc21b7b15e50f7fd90b3171c6c661421,41
4,1,28,73,64,52,63,63,49,10288,Female,dc21b7b15e50f7fd90b3171c6c661421,77
4,1,29,46,73,46,56,87,8,15811,Female,dc21b7b15e50f7fd90b3171c6c661421,48
4,1,30,91,37,89,18,73,10,8094,Female,dc21b7b15e50f7fd90b3171c6c661421,94
4,1,31,46,55,58,46,77,66,26845,Female,dc21b7b15e50f7fd90b3171c6c661421,46
4,1,32,46,46,44,40,67,4,11432,Female,dc21b7b15e50f7fd90b3171c6c661421,45
4,1,33,46,37,45,27,69,68,6353,Female,dc21b7b15e50f7fd90b3171c6c661421,44
4,1,34,73,10,68,21,9,92,14421,Female,dc21b7b15e50f7fd90b3171c6c661421,71
4,1,35,82,82,87,77,56,40,8840,Female,dc21b7b15e50f7fd90b3171c6c661421,89
4,1,36,91,64,97,74,67,82,4980,Female,dc21b7b15e50f7fd90b3171c6c661421,97
4,1,37,55,64,72,67,41,7,12275,Female,dc21b7b15e50f7fd90b3171c6c661421,57
4,1,38,19,91,4,87,81,29,8602,Female,dc21b7b15e50f7fd90b3171c6c661421,20
4,1,39,10,28,6,19,45,93,8771,Female,dc21b7b15e50f7fd90b3171c6c661421,3
4,1,40,10,10,3,7,49,87,7498,Female,dc21b7b15e50f7fd90b3171c6c661421,1
4,1,41,28,46,15,43,99,23,12082,Female,dc21b7b15e50f7fd90b3171c6c661421,25
4,1,42,82,37,84,27,3,94,5720,Female,dc21b7b15e50f7fd90b3171c6c661421,84
4,1,43,73,55,91,42,49,6,10178,Female,dc21b7b15e50f7fd90b3171c6c661421,76
4,1,44,73,91,79,79,26,76,16002,Female,dc21b7b15e50f7fd90b3171c6c661421,80
4,1,45,82,10,92,14,73,20,4122,Female,dc21b7b15e50f7fd90b3171c6c661421,81
4,1,46,64,19,75,21,46,22,9564,Female,dc21b7b15e50f7fd90b3171c6c661421,62
4,1,47,37,73,51,55,39,95,6819,Female,dc21b7b15e50f7fd90b3171c6c661421,38
4,1,48,91,82,90,76,14,93,6659,Female,dc21b7b15e50f7fd90b3171c6c661421,99
4,1,49,37,46,48,52,45,3,38332,Female,dc21b7b15e50f7fd90b3171c6c661421,35
4,1,50,28,19,33,15,97,8,10407,Female,dc21b7b15e50f7fd90b3171c6c661421,22
4,1,51,55,55,32,40,59,57,7383,Female,dc21b7b15e50f7fd90b3171c6c661421,56
4,1,52,10,91,10,92,6,32,6809,Female,dc21b7b15e50f7fd90b3171c6c661421,10
4,1,53,19,19,12,15,83,76,5306,Female,dc21b7b15e50f7fd90b3171c6c661421,12
4,1,54,55,37,81,32,2,47,11975,Female,dc21b7b15e50f7fd90b3171c6c661421,54
4,1,55,37,55,27,47,56,63,11140,Female,dc21b7b15e50f7fd90b3171c6c661421,36
4,1,56,82,55,81,47,16,31,9577,Female,dc21b7b15e50f7fd90b3171c6c661421,86
4,1,57,64,55,69,51,82,6,14879,Female,dc21b7b15e50f7fd90b3171c6c661421,66
4,1,58,46,64,60,55,23,19,14424,Female,dc21b7b15e50f7fd90b3171c6c661421,47
4,1,59,19,37,17,35,62,88,13099,Female,dc21b7b15e50f7fd90b3171c6c661421,14
4,1,60,28,55,15,50,23,11,7193,Female,dc21b7b15e50f7fd90b3171c6c661421,26
4,1,61,19,28,15,15,30,60,11227,Female,dc21b7b15e50f7fd90b3171c6c661421,13
4,1,62,28,73,18,56,54,34,8659,Female,dc21b7b15e50f7fd90b3171c6c661421,28
4,1,63,37,64,15,61,85,27,5760,Female,dc21b7b15e50f7fd90b3171c6c661421,37
4,1,64,55,10,59,19,80,68,7982,Female,dc21b7b15e50f7fd90b3171c6c661421,51
4,1,65,28,37,46,34,94,89,43484,Female,dc21b7b15e50f7fd90b3171c6c661421,24
4,1,66,28,82,24,84,73,65,11498,Female,dc21b7b15e50f7fd90b3171c6c661421,29
4,1,67,55,82,36,83,4,96,14260,Female,dc21b7b15e50f7fd90b3171c6c661421,59
4,1,68,91,55,82,42,18,58,7171,Female,dc21b7b15e50f7fd90b3171c6c661421,96
4,1,69,73,28,81,25,42,100,8815,Female,dc21b7b15e50f7fd90b3171c6c661421,73
4,1,70,46,28,30,24,60,39,8648,Female,dc21b7b15e50f7fd90b3171c6c661421,43
4,1,71,73,37,75,27,87,80,16475,Female,dc21b7b15e50f7fd90b3171c6c661421,74
4,1,72,55,73,39,72,7,22,9939,Female,dc21b7b15e50f7fd90b3171c6c661421,58
4,1,73,19,10,13,8,67,46,15737,Female,dc21b7b15e50f7fd90b3171c6c661421,11
4,1,74,28,28,21,20,7,58,5020,Female,dc21b7b15e50f7fd90b3171c6c661421,23
4,1,75,82,64,83,48,8,18,10463,Female,dc21b7b15e50f7fd90b3171c6c661421,87
4,1,76,46,91,54,89,42,78,11534,Female,dc21b7b15e50f7fd90b3171c6c661421,50
4,1,77,91,91,86,93,94,51,6778,Female,dc21b7b15e50f7fd90b3171c6c661421,100
4,1,78,37,82,28,81,32,1,11607,Female,dc21b7b15e50f7fd90b3171c6c661421,39
4,1,79,91,28,89,25,72,73,17184,Female,dc21b7b15e50f7fd90b3171c6c661421,93
4,1,80,10,82,10,89,70,86,15440,Female,dc21b7b15e50f7fd90b3171c6c661421,9
4,1,81,55,91,70,90,20,9,9412,Female,dc21b7b15e50f7fd90b3171c6c661421,60
4,1,82,82,91,82,91,2,69,3639,Female,dc21b7b15e50f7fd90b3171c6c661421,90
4,1,83,82,28,87,25,42,17,7611,Female,dc21b7b15e50f7fd90b3171c6c661421,83
4,1,84,64,46,64,35,25,52,23188,Female,dc21b7b15e50f7fd90b3171c6c661421,65
4,1,85,28,10,15,12,97,54,72834,Female,dc21b7b15e50f7fd90b3171c6c661421,21
4,1,86,82,19,89,18,23,28,5439,Female,dc21b7b15e50f7fd90b3171c6c661421,82
4,1,87,28,91,22,85,26,88,12796,Female,dc21b7b15e50f7fd90b3171c6c661421,30
4,1,88,64,91,69,80,16,88,6317,Female,dc21b7b15e50f7fd90b3171c6c661421,70
4,1,89,64,10,58,14,73,44,11303,Female,dc21b7b15e50f7fd90b3171c6c661421,61
4,1,90,37,10,53,13,50,19,7444,Female,dc21b7b15e50f7fd90b3171c6c661421,31
4,1,91,19,73,25,69,79,4,30547,Female,dc21b7b15e50f7fd90b3171c6c661421,18
4,1,92,64,37,50,34,90,51,8575,Female,dc21b7b15e50f7fd90b3171c6c661421,64
4,1,93,19,55,23,58,30,11,29508,Female,dc21b7b15e50f7fd90b3171c6c661421,16
4,1,94,64,28,63,28,44,55,4693,Female,dc21b7b15e50f7fd90b3171c6c661421,63
4,1,95,37,19,28,13,1,76,7442,Female,dc21b7b15e50f7fd90b3171c6c661421,32
4,1,96,82,73,78,75,83,91,59911,Female,dc21b7b15e50f7fd90b3171c6c661421,88
4,1,97,73,46,70,45,89,63,5208,Female,dc21b7b15e50f7fd90b3171c6c661421,75
4,1,98,37,91,23,88,62,26,6730,Female,dc21b7b15e50f7fd90b3171c6c661421,40
4,1,99,19,46,17,41,19,15,36375,Female,dc21b7b15e50f7fd90b3171c6c661421,15
4,2,0,64,82,65,74,85,58,10222,Female,dc21b7b15e50f7fd90b3171c6c661421,69
4,2,1,55,91,76,87,97,87,7501,Female,dc21b7b15e50f7fd90b3171c6c661421,60
4,2,2,10,55,17,34,43,17,9101,Female,dc21b7b15e50f7fd90b3171c6c661421,6
4,2,3,55,37,40,31,79,20,6048,Female,dc21b7b15e50f7fd90b3171c6c661421,54
4,2,4,19,73,15,70,18,55,7318,Female,dc21b7b15e50f7fd90b3171c6c661421,18
4,2,5,37,91,30,89,92,58,5108,Female,dc21b7b15e50f7fd90b3171c6c661421,40
4,2,6,37,19,50,16,75,80,7478,Female,dc21b7b15e50f7fd90b3171c6c661421,32
4,2,7,37,28,30,22,72,15,5861,Female,dc21b7b15e50f7fd90b3171c6c661421,33
4,2,8,64,64,60,48,55,56,13541,Female,dc21b7b15e50f7fd90b3171c6c661421,67
4,2,9,46,73,54,75,54,27,4480,Female,dc21b7b15e50f7fd90b3171c6c661421,48
4,2,10,46,55,45,48,92,57,4675,Female,dc21b7b15e50f7fd90b3171c6c661421,46
4,2,11,64,91,72,90,43,84,6763,Female,dc21b7b15e50f7fd90b3171c6c661421,70
4,2,12,55,82,58,80,53,77,4656,Female,dc21b7b15e50f7fd90b3171c6c661421,59
4,2,13,28,73,31,72,62,82,7248,Female,dc21b7b15e50f7fd90b3171c6c661421,28
4,2,14,19,46,27,34,81,93,10087,Female,dc21b7b15e50f7fd90b3171c6c661421,15
4,2,15,73,64,74,45,24,64,6805,Female,dc21b7b15e50f7fd90b3171c6c661421,77
4,2,16,46,46,62,48,66,71,5463,Female,dc21b7b15e50f7fd90b3171c6c661421,45
4,2,17,19,10,9,13,98,33,7055,Female,dc21b7b15e50f7fd90b3171c6c661421,11
4,2,18,19,19,11,13,48,27,6208,Female,dc21b7b15e50f7fd90b3171c6c661421,12
4,2,19,28,37,16,26,77,20,6197,Female,dc21b7b15e50f7fd90b3171c6c661421,24
4,2,20,91,37,90,18,95,71,4871,Female,dc21b7b15e50f7fd90b3171c6c661421,94
4,2,21,46,10,73,15,22,35,7409,Female,dc21b7b15e50f7fd90b3171c6c661421,41
4,2,22,64,55,52,51,91,45,6015,Female,dc21b7b15e50f7fd90b3171c6c661421,66
4,2,23,46,64,52,59,60,4,5443,Female,dc21b7b15e50f7fd90b3171c6c661421,47
4,2,24,10,91,1,98,34,55,10941,Female,dc21b7b15e50f7fd90b3171c6c661421,10
4,2,25,19,64,11,67,75,43,8156,Female,dc21b7b15e50f7fd90b3171c6c661421,17
4,2,26,46,82,30,81,76,62,37360,Female,dc21b7b15e50f7fd90b3171c6c661421,49
4,2,27,91,10,96,6,97,71,9240,Female,dc21b7b15e50f7fd90b3171c6c661421,91
4,2,28,28,82,15,87,58,33,5601,Female,dc21b7b15e50f7fd90b3171c6c661421,29
4,2,29,73,19,73,16,76,72,7077,Female,dc21b7b15e50f7fd90b3171c6c661421,72
4,2,30,46,37,47,35,14,30,6995,Female,dc21b7b15e50f7fd90b3171c6c661421,44
4,2,31,64,19,32,11,74,51,62309,Female,dc21b7b15e50f7fd90b3171c6c661421,62
4,2,32,91,91,90,84,31,1,5865,Female,dc21b7b15e50f7fd90b3171c6c661421,100
4,2,33,28,28,18,28,32,45,7845,Female,dc21b7b15e50f7fd90b3171c6c661421,23
4,2,34,73,82,86,79,66,68,6457,Female,dc21b7b15e50f7fd90b3171c6c661421,79
4,2,35,19,28,13,20,16,65,4080,Female,dc21b7b15e50f7fd90b3171c6c661421,13
4,2,36,82,19,89,19,6,16,4393,Female,dc21b7b15e50f7fd90b3171c6c661421,82
4,2,37,28,55,21,43,35,56,4186,Female,dc21b7b15e50f7fd90b3171c6c661421,26
4,2,38,37,55,29,51,38,43,4017,Female,dc21b7b15e50f7fd90b3171c6c661421,36
4,2,39,64,28,51,22,3,96,4794,Female,dc21b7b15e50f7fd90b3171c6c661421,63
4,2,40,37,82,43,70,86,72,5207,Female,dc21b7b15e50f7fd90b3171c6c661421,39
4,2,41,28,19,13,21,29,45,5324,Female,dc21b7b15e50f7fd90b3171c6c661421,22
4,2,42,37,46,17,28,91,8,6250,Female,dc21b7b15e50f7fd90b3171c6c661421,35
4,2,43,46,91,22,93,14,85,5063,Female,dc21b7b15e50f7fd90b3171c6c661421,50
4,2,44,55,10,40,12,15,64,7162,Female,dc21b7b15e50f7fd90b3171c6c661421,51
4,2,45,19,91,14,92,25,23,8859,Female,dc21b7b15e50f7fd90b3171c6c661421,20
4,2,46,91,82,89,87,82,71,5891,Female,dc21b7b15e50f7fd90b3171c6c661421,99
4,2,47,73,10,78,11,6,92,3989,Female,dc21b7b15e50f7fd90b3171c6c661421,71
4,2,48,82,64,72,51,38,71,7824,Female,dc21b7b15e50f7fd90b3171c6c661421,87
4,2,49,73,73,73,64,66,86,6943,Female,dc21b7b15e50f7fd90b3171c6c661421,78
4,2,50,37,64,35,59,55,19,22172,Female,dc21b7b15e50f7fd90b3171c6c661421,37
4,2,51,64,73,58,70,27,72,3777,Female,dc21b7b15e50f7fd90b3171c6c661421,68
4,2,52,82,28,82,28,45,63,9093,Female,dc21b7b15e50f7fd90b3171c6c661421,83
4,2,53,10,46,13,40,52,4,7169,Female,dc21b7b15e50f7fd90b3171c6c661421,5
4,2,54,19,37,19,43,90,57,4289,Female,dc21b7b15e50f7fd90b3171c6c661421,14
4,2,55,73,28,86,26,39,64,5129,Female,dc21b7b15e50f7fd90b3171c6c661421,73
4,2,56,55,46,57,38,77,74,6109,Female,dc21b7b15e50f7fd90b3171c6c661421,55
4,2,57,55,55,58,60,40,6,7988,Female,dc21b7b15e50f7fd90b3171c6c661421,56
4,2,58,19,55,15,59,39,97,5443,Female,dc21b7b15e50f7fd90b3171c6c661421,16
4,2,59,10,37,14,34,48,87,154763,Female,dc21b7b15e50f7fd90b3171c6c661421,4
4,2,60,82,10,94,8,62,52,4330,Female,dc21b7b15e50f7fd90b3171c6c661421,81
4,2,61,91,28,91,24,8,99,4780,Female,dc21b7b15e50f7fd90b3171c6c661421,93
4,2,62,37,37,22,28,9,94,6284,Female,dc21b7b15e50f7fd90b3171c6c661421,34
4,2,63,28,64,16,55,39,99,8213,Female,dc21b7b15e50f7fd90b3171c6c661421,27
4,2,64,82,55,86,54,8,49,5738,Female,dc21b7b15e50f7fd90b3171c6c661421,86
4,2,65,64,10,62,12,97,59,7421,Female,dc21b7b15e50f7fd90b3171c6c661421,61
4,2,66,46,19,46,21,70,40,5244,Female,dc21b7b15e50f7fd90b3171c6c661421,42
4,2,67,37,73,22,57,7,43,6443,Female,dc21b7b15e50f7fd90b3171c6c661421,38
4,2,68,64,46,69,47,37,89,4262,Female,dc21b7b15e50f7fd90b3171c6c661421,65
4,2,69,28,91,17,94,42,67,4288,Female,dc21b7b15e50f7fd90b3171c6c661421,30
4,2,70,55,19,77,14,76,94,5188,Female,dc21b7b15e50f7fd90b3171c6c661421,52
4,2,71,19,82,19,74,55,28,5525,Female,dc21b7b15e50f7fd90b3171c6c661421,19
4,2,72,10,10,8,8,82,95,3703,Female,dc21b7b15e50f7fd90b3171c6c661421,1
4,2,73,37,10,25,12,78,35,8126,Female,dc21b7b15e50f7fd90b3171c6c661421,31
4,2,74,10,28,11,27,95,46,5002,Female,dc21b7b15e50f7fd90b3171c6c661421,3
4,2,75,10,64,14,52,56,52,5483,Female,dc21b7b15e50f7fd90b3171c6c661421,7
4,2,76,55,64,56,70,36,97,7116,Female,dc21b7b15e50f7fd90b3171c6c661421,57
4,2,77,55,28,53,34,99,73,5389,Female,dc21b7b15e50f7fd90b3171c6c661421,53
4,2,78,91,73,90,76,66,66,6935,Female,dc21b7b15e50f7fd90b3171c6c661421,98
4,2,79,73,55,88,69,42,6,5809,Female,dc21b7b15e50f7fd90b3171c6c661421,76
4,2,80,73,91,78,87,88,95,6957,Female,dc21b7b15e50f7fd90b3171c6c661421,80
4,2,81,82,73,82,72,86,76,5821,Female,dc21b7b15e50f7fd90b3171c6c661421,88
4,2,82,55,73,48,69,72,27,7320,Female,dc21b7b15e50f7fd90b3171c6c661421,58
4,2,83,10,19,10,14,15,84,5890,Female,dc21b7b15e50f7fd90b3171c6c661421,2
4,2,84,91,64,85,45,61,2,4128,Female,dc21b7b15e50f7fd90b3171c6c661421,97
4,2,85,82,46,86,43,75,88,5375,Female,dc21b7b15e50f7fd90b3171c6c661421,85
4,2,86,82,82,90,80,18,53,4814,Female,dc21b7b15e50f7fd90b3171c6c661421,89
4,2,87,64,37,58,47,57,44,5525,Female,dc21b7b15e50f7fd90b3171c6c661421,64
4,2,88,73,46,72,51,58,30,3397,Female,dc21b7b15e50f7fd90b3171c6c661421,75
4,2,89,28,46,15,38,34,40,4775,Female,dc21b7b15e50f7fd90b3171c6c661421,25
4,2,90,91,19,94,17,7,66,4540,Female,dc21b7b15e50f7fd90b3171c6c661421,92
4,2,91,91,46,88,38,80,73,8569,Female,dc21b7b15e50f7fd90b3171c6c661421,95
4,2,92,10,82,3,93,36,90,10413,Female,dc21b7b15e50f7fd90b3171c6c661421,9
4,2,93,10,73,7,79,96,17,9809,Female,dc21b7b15e50f7fd90b3171c6c661421,8
4,2,94,73,37,83,44,4,52,6896,Female,dc21b7b15e50f7fd90b3171c6c661421,74
4,2,95,82,91,84,90,53,2,5363,Female,dc21b7b15e50f7fd90b3171c6c661421,90
4,2,96,46,28,62,43,19,49,4404,Female,dc21b7b15e50f7fd90b3171c6c661421,43
4,2,97,28,10,28,15,37,94,8895,Female,dc21b7b15e50f7fd90b3171c6c661421,21
4,2,98,82,37,84,30,14,90,5912,Female,dc21b7b15e50f7fd90b3171c6c661421,84
4,2,99,91,55,91,52,91,4,4131,Female,dc21b7b15e50f7fd90b3171c6c661421,96
1,1,0,19,46,20,27,57,54,19648,Female,566ecd3728f3e43b275d04c50fa20877,15
1,1,1,28,55,26,44,7,17,7462,Female,566ecd3728f3e43b275d04c50fa20877,26
1,1,2,73,28,85,21,69,79,16748,Female,566ecd3728f3e43b275d04c50fa20877,73
1,1,3,46,73,67,79,67,78,12777,Female,566ecd3728f3e43b275d04c50fa20877,48
1,1,4,10,19,24,16,87,95,10520,Female,566ecd3728f3e43b275d04c50fa20877,2
1,1,5,37,37,25,20,3,82,7615,Female,566ecd3728f3e43b275d04c50fa20877,34
1,1,6,10,10,5,12,25,28,7600,Female,566ecd3728f3e43b275d04c50fa20877,1
1,1,7,55,19,58,11,49,26,7365,Female,566ecd3728f3e43b275d04c50fa20877,52
1,1,8,55,28,65,13,41,50,5677,Female,566ecd3728f3e43b275d04c50fa20877,53
1,1,9,19,10,13,12,28,66,8739,Female,566ecd3728f3e43b275d04c50fa20877,11
1,1,10,82,73,89,86,13,5,7983,Female,566ecd3728f3e43b275d04c50fa20877,88
1,1,11,91,37,83,51,10,23,4120,Female,566ecd3728f3e43b275d04c50fa20877,94
1,1,12,55,91,65,86,82,26,6470,Female,566ecd3728f3e43b275d04c50fa20877,60
1,1,13,28,46,39,53,2,72,7633,Female,566ecd3728f3e43b275d04c50fa20877,25
1,1,14,28,19,39,26,2,1,7786,Female,566ecd3728f3e43b275d04c50fa20877,22
1,1,15,28,28,34,22,33,84,6718,Female,566ecd3728f3e43b275d04c50fa20877,23
1,1,16,82,55,71,60,18,90,6125,Female,566ecd3728f3e43b275d04c50fa20877,86
1,1,17,28,82,43,82,45,82,5937,Female,566ecd3728f3e43b275d04c50fa20877,29
1,1,18,10,73,8,88,9,54,13839,Female,566ecd3728f3e43b275d04c50fa20877,8
1,1,19,91,64,81,71,100,19,9081,Female,566ecd3728f3e43b275d04c50fa20877,97
1,1,20,64,82,84,57,96,85,10490,Female,566ecd3728f3e43b275d04c50fa20877,69
1,1,21,28,73,54,70,100,75,5393,Female,566ecd3728f3e43b275d04c50fa20877,28
1,1,22,64,55,81,43,74,43,5352,Female,566ecd3728f3e43b275d04c50fa20877,66
1,1,23,37,73,61,49,85,42,7983,Female,566ecd3728f3e43b275d04c50fa20877,38
1,1,24,55,37,46,33,67,79,7381,Female,566ecd3728f3e43b275d04c50fa20877,54
1,1,25,91,10,91,7,7,26,10058,Female,566ecd3728f3e43b275d04c50fa20877,91
1,1,26,82,91,90,96,76,35,25933,Female,566ecd3728f3e43b275d04c50fa20877,90
1,1,27,46,55,46,74,77,51,9056,Female,566ecd3728f3e43b275d04c50fa20877,46
1,1,28,19,73,52,79,34,71,6277,Female,566ecd3728f3e43b275d04c50fa20877,18
1,1,29,55,82,52,83,49,84,18192,Female,566ecd3728f3e43b275d04c50fa20877,59
1,1,30,46,82,50,83,50,48,8558,Female,566ecd3728f3e43b275d04c50fa20877,49
1,1,31,19,28,21,9,17,76,26942,Female,566ecd3728f3e43b275d04c50fa20877,13
1,1,32,10,28,17,10,24,42,5610,Female,566ecd3728f3e43b275d04c50fa20877,3
1,1,33,82,19,74,12,42,44,5183,Female,566ecd3728f3e43b275d04c50fa20877,82
1,1,34,73,55,86,38,28,46,9054,Female,566ecd3728f3e43b275d04c50fa20877,76
1,1,35,55,46,68,37,38,79,8239,Female,566ecd3728f3e43b275d04c50fa20877,55
1,1,36,19,82,17,93,7,19,6029,Female,566ecd3728f3e43b275d04c50fa20877,19
1,1,37,64,37,72,22,76,33,7030,Female,566ecd3728f3e43b275d04c50fa20877,64
1,1,38,37,19,12,16,34,48,6344,Female,566ecd3728f3e43b275d04c50fa20877,32
1,1,39,73,64,72,41,91,24,6652,Female,566ecd3728f3e43b275d04c50fa20877,77
1,1,40,73,73,74,60,95,46,3364,Female,566ecd3728f3e43b275d04c50fa20877,78
1,1,41,37,28,50,31,46,36,4242,Female,566ecd3728f3e43b275d04c50fa20877,33
1,1,42,19,37,33,41,13,52,6460,Female,566ecd3728f3e43b275d04c50fa20877,14
1,1,43,91,82,89,89,63,46,3991,Female,566ecd3728f3e43b275d04c50fa20877,99
1,1,44,37,10,56,9,55,85,8325,Female,566ecd3728f3e43b275d04c50fa20877,31
1,1,45,37,55,42,70,40,17,6139,Female,566ecd3728f3e43b275d04c50fa20877,36
1,1,46,19,55,23,73,21,1,3852,Female,566ecd3728f3e43b275d04c50fa20877,16
1,1,47,55,55,64,56,70,28,8170,Female,566ecd3728f3e43b275d04c50fa20877,56
1,1,48,46,28,61,28,13,85,3596,Female,566ecd3728f3e43b275d04c50fa20877,43
1,1,49,10,64,7,84,57,47,5947,Female,566ecd3728f3e43b275d04c50fa20877,7
1,1,50,10,46,10,43,82,70,7885,Female,566ecd3728f3e43b275d04c50fa20877,5
1,1,51,91,19,53,52,23,10,16980,Female,566ecd3728f3e43b275d04c50fa20877,92
1,1,52,46,19,66,18,64,20,4298,Female,566ecd3728f3e43b275d04c50fa20877,42
1,1,53,73,10,86,5,91,2,5674,Female,566ecd3728f3e43b275d04c50fa20877,71
1,1,54,82,82,97,29,3,33,5172,Female,566ecd3728f3e43b275d04c50fa20877,89
1,1,55,64,46,63,42,60,57,4913,Female,566ecd3728f3e43b275d04c50fa20877,65
1,1,56,91,91,86,88,92,14,3679,Female,566ecd3728f3e43b275d04c50fa20877,100
1,1,57,46,10,57,11,14,44,4015,Female,566ecd3728f3e43b275d04c50fa20877,41
1,1,58,37,46,49,11,73,59,8765,Female,566ecd3728f3e43b275d04c50fa20877,35
1,1,59,28,91,38,96,77,26,3968,Female,566ecd3728f3e43b275d04c50fa20877,30
1,1,60,82,64,74,82,55,30,4822,Female,566ecd3728f3e43b275d04c50fa20877,87
1,1,61,37,64,63,74,71,40,3616,Female,566ecd3728f3e43b275d04c50fa20877,37
1,1,62,28,10,32,9,34,4,3940,Female,566ecd3728f3e43b275d04c50fa20877,21
1,1,63,55,73,24,69,9,58,4774,Female,566ecd3728f3e43b275d04c50fa20877,58
1,1,64,28,64,26,73,85,100,3193,Female,566ecd3728f3e43b275d04c50fa20877,27
1,1,65,10,82,1,99,96,76,5726,Female,566ecd3728f3e43b275d04c50fa20877,9
1,1,66,46,91,14,87,85,66,4533,Female,566ecd3728f3e43b275d04c50fa20877,50
1,1,67,64,64,65,84,79,52,5577,Female,566ecd3728f3e43b275d04c50fa20877,67
1,1,68,55,64,56,65,83,24,2728,Female,566ecd3728f3e43b275d04c50fa20877,57
1,1,69,82,46,85,31,37,29,3103,Female,566ecd3728f3e43b275d04c50fa20877,85
1,1,70,46,64,24,43,45,78,4698,Female,566ecd3728f3e43b275d04c50fa20877,47
1,1,71,73,19,84,16,51,51,5045,Female,566ecd3728f3e43b275d04c50fa20877,72
1,1,72,10,91,8,96,48,23,3866,Female,566ecd3728f3e43b275d04c50fa20877,10
1,1,73,37,91,20,92,61,35,4837,Female,566ecd3728f3e43b275d04c50fa20877,40
1,1,74,91,28,69,30,15,6,5651,Female,566ecd3728f3e43b275d04c50fa20877,93
1,1,75,19,19,22,21,81,36,5028,Female,566ecd3728f3e43b275d04c50fa20877,12
1,1,76,64,91,77,98,50,91,5027,Female,566ecd3728f3e43b275d04c50fa20877,70
1,1,77,82,28,81,21,1,8,6279,Female,566ecd3728f3e43b275d04c50fa20877,83
1,1,78,64,19,76,19,25,7,3881,Female,566ecd3728f3e43b275d04c50fa20877,62
1,1,79,73,91,79,97,79,97,1989,Female,566ecd3728f3e43b275d04c50fa20877,80
1,1,80,46,37,64,20,81,53,3228,Female,566ecd3728f3e43b275d04c50fa20877,44
1,1,81,46,46,53,30,28,64,5425,Female,566ecd3728f3e43b275d04c50fa20877,45
1,1,82,73,46,63,23,31,66,3749,Female,566ecd3728f3e43b275d04c50fa20877,75
1,1,83,19,91,15,97,14,7,6267,Female,566ecd3728f3e43b275d04c50fa20877,20
1,1,84,37,82,22,95,34,44,5548,Female,566ecd3728f3e43b275d04c50fa20877,39
1,1,85,19,64,27,41,44,23,5517,Female,566ecd3728f3e43b275d04c50fa20877,17
1,1,86,64,28,65,20,31,47,10777,Female,566ecd3728f3e43b275d04c50fa20877,63
1,1,87,10,37,8,24,90,89,5114,Female,566ecd3728f3e43b275d04c50fa20877,4
1,1,88,64,10,66,6,98,76,3474,Female,566ecd3728f3e43b275d04c50fa20877,61
1,1,89,91,73,75,84,22,43,3745,Female,566ecd3728f3e43b275d04c50fa20877,98
1,1,90,73,37,83,26,86,79,3365,Female,566ecd3728f3e43b275d04c50fa20877,74
1,1,91,82,10,85,10,65,72,3447,Female,566ecd3728f3e43b275d04c50fa20877,81
1,1,92,64,73,73,63,35,92,3347,Female,566ecd3728f3e43b275d04c50fa20877,68
1,1,93,55,10,70,14,55,14,1871,Female,566ecd3728f3e43b275d04c50fa20877,51
1,1,94,91,46,75,15,7,57,3206,Female,566ecd3728f3e43b275d04c50fa20877,95
1,1,95,82,37,64,14,98,52,4239,Female,566ecd3728f3e43b275d04c50fa20877,84
1,1,96,91,55,67,59,63,71,4834,Female,566ecd3728f3e43b275d04c50fa20877,96
1,1,97,10,55,8,76,35,85,4666,Female,566ecd3728f3e43b275d04c50fa20877,6
1,1,98,73,82,69,77,40,82,6599,Female,566ecd3728f3e43b275d04c50fa20877,79
1,1,99,28,37,16,40,20,40,5424,Female,566ecd3728f3e43b275d04c50fa20877,24
1,2,0,10,82,17,85,15,85,4443,Female,566ecd3728f3e43b275d04c50fa20877,9
1,2,1,19,37,19,28,58,75,6155,Female,566ecd3728f3e43b275d04c50fa20877,14
1,2,2,10,73,17,60,61,14,2878,Female,566ecd3728f3e43b275d04c50fa20877,8
1,2,3,10,28,14,16,87,87,3660,Female,566ecd3728f3e43b275d04c50fa20877,3
1,2,4,82,64,70,56,17,35,7147,Female,566ecd3728f3e43b275d04c50fa20877,87
1,2,5,37,91,58,91,71,68,2974,Female,566ecd3728f3e43b275d04c50fa20877,40
1,2,6,55,64,51,55,91,35,7965,Female,566ecd3728f3e43b275d04c50fa20877,57
1,2,7,55,46,48,57,91,45,6311,Female,566ecd3728f3e43b275d04c50fa20877,55
1,2,8,91,46,78,49,22,1,15379,Female,566ecd3728f3e43b275d04c50fa20877,95
1,2,9,64,46,74,53,52,90,3433,Female,566ecd3728f3e43b275d04c50fa20877,65
1,2,10,82,28,64,25,2,18,8229,Female,566ecd3728f3e43b275d04c50fa20877,83
1,2,11,37,37,40,33,15,39,5812,Female,566ecd3728f3e43b275d04c50fa20877,34
1,2,12,46,46,36,32,9,87,2701,Female,566ecd3728f3e43b275d04c50fa20877,45
1,2,13,28,10,30,5,54,91,5701,Female,566ecd3728f3e43b275d04c50fa20877,21
1,2,14,91,64,88,76,54,15,7366,Female,566ecd3728f3e43b275d04c50fa20877,97
1,2,15,73,82,88,74,81,89,16229,Female,566ecd3728f3e43b275d04c50fa20877,79
1,2,16,46,73,61,69,72,6,8974,Female,566ecd3728f3e43b275d04c50fa20877,48
1,2,17,37,10,31,7,19,2,8755,Female,566ecd3728f3e43b275d04c50fa20877,31
1,2,18,46,91,26,91,84,22,13664,Female,566ecd3728f3e43b275d04c50fa20877,50
1,2,19,91,55,67,27,77,52,3468,Female,566ecd3728f3e43b275d04c50fa20877,96
1,2,20,19,64,23,61,94,84,5565,Female,566ecd3728f3e43b275d04c50fa20877,17
1,2,21,37,55,28,69,71,34,3461,Female,566ecd3728f3e43b275d04c50fa20877,36
1,2,22,46,82,31,80,27,56,52291,Female,566ecd3728f3e43b275d04c50fa20877,49
1,2,23,28,73,50,80,71,48,7305,Female,566ecd3728f3e43b275d04c50fa20877,28
1,2,24,64,55,55,41,100,29,6520,Female,566ecd3728f3e43b275d04c50fa20877,66
1,2,25,91,91,86,91,69,78,6040,Female,566ecd3728f3e43b275d04c50fa20877,100
1,2,26,82,10,92,10,4,94,5269,Female,566ecd3728f3e43b275d04c50fa20877,81
1,2,27,19,19,16,17,43,25,3801,Female,566ecd3728f3e43b275d04c50fa20877,12
1,2,28,64,73,61,36,74,78,3584,Female,566ecd3728f3e43b275d04c50fa20877,68
1,2,29,28,91,29,91,39,47,8568,Female,566ecd3728f3e43b275d04c50fa20877,30
1,2,30,46,28,45,11,78,68,9546,Female,566ecd3728f3e43b275d04c50fa20877,43
1,2,31,10,46,16,18,62,42,7269,Female,566ecd3728f3e43b275d04c50fa20877,5
1,2,32,46,37,33,20,81,11,7140,Female,566ecd3728f3e43b275d04c50fa20877,44
1,2,33,73,55,66,47,82,38,5980,Female,566ecd3728f3e43b275d04c50fa20877,76
1,2,34,37,64,59,35,65,74,5789,Female,566ecd3728f3e43b275d04c50fa20877,37
1,2,35,55,82,52,84,72,34,4880,Female,566ecd3728f3e43b275d04c50fa20877,59
1,2,36,10,91,18,94,32,3,6977,Female,566ecd3728f3e43b275d04c50fa20877,10
1,2,37,82,73,66,76,16,22,4828,Female,566ecd3728f3e43b275d04c50fa20877,88
1,2,38,19,55,27,35,67,46,3811,Female,566ecd3728f3e43b275d04c50fa20877,16
1,2,39,46,19,35,30,94,46,7686,Female,566ecd3728f3e43b275d04c50fa20877,42
1,2,40,64,28,45,11,61,21,6368,Female,566ecd3728f3e43b275d04c50fa20877,63
1,2,41,28,82,32,90,20,49,11983,Female,566ecd3728f3e43b275d04c50fa20877,29
1,2,42,82,82,50,67,61,16,15736,Female,566ecd3728f3e43b275d04c50fa20877,89
1,2,43,55,28,60,17,90,93,10800,Female,566ecd3728f3e43b275d04c50fa20877,53
1,2,44,64,10,57,11,68,43,8176,Female,566ecd3728f3e43b275d04c50fa20877,61
1,2,45,73,19,66,18,71,71,26725,Female,566ecd3728f3e43b275d04c50fa20877,72
1,2,46,10,37,12,17,53,70,4993,Female,566ecd3728f3e43b275d04c50fa20877,4
1,2,47,28,37,24,20,13,49,7879,Female,566ecd3728f3e43b275d04c50fa20877,24
1,2,48,19,82,15,35,4,20,10861,Female,566ecd3728f3e43b275d04c50fa20877,19
1,2,49,19,91,27,89,31,32,4031,Female,566ecd3728f3e43b275d04c50fa20877,20
1,2,50,46,10,44,27,40,68,6852,Female,566ecd3728f3e43b275d04c50fa20877,41
1,2,51,37,28,38,13,34,82,4746,Female,566ecd3728f3e43b275d04c50fa20877,33
1,2,52,91,19,76,13,22,91,3927,Female,566ecd3728f3e43b275d04c50fa20877,92
1,2,53,10,55,11,22,9,93,4990,Female,566ecd3728f3e43b275d04c50fa20877,6
1,2,54,19,10,17,32,4,52,3082,Female,566ecd3728f3e43b275d04c50fa20877,11
1,2,55,55,10,62,13,24,56,5849,Female,566ecd3728f3e43b275d04c50fa20877,51
1,2,56,82,37,69,24,28,8,9355,Female,566ecd3728f3e43b275d04c50fa20877,84
1,2,57,91,82,70,91,65,97,3481,Female,566ecd3728f3e43b275d04c50fa20877,99
1,2,58,73,10,75,6,36,30,3263,Female,566ecd3728f3e43b275d04c50fa20877,71
1,2,59,73,37,73,19,75,70,5257,Female,566ecd3728f3e43b275d04c50fa20877,74
1,2,60,64,37,69,21,19,58,5457,Female,566ecd3728f3e43b275d04c50fa20877,64
1,2,61,19,28,15,16,76,36,7773,Female,566ecd3728f3e43b275d04c50fa20877,13
1,2,62,10,10,14,12,87,89,3364,Female,566ecd3728f3e43b275d04c50fa20877,1
1,2,63,82,55,75,19,100,66,3705,Female,566ecd3728f3e43b275d04c50fa20877,86
1,2,64,28,55,29,44,65,40,3383,Female,566ecd3728f3e43b275d04c50fa20877,26
1,2,65,73,28,72,23,69,37,2584,Female,566ecd3728f3e43b275d04c50fa20877,73
1,2,66,10,64,16,53,38,67,5461,Female,566ecd3728f3e43b275d04c50fa20877,7
1,2,67,28,28,17,19,51,55,2640,Female,566ecd3728f3e43b275d04c50fa20877,23
1,2,68,82,19,75,19,43,1,5055,Female,566ecd3728f3e43b275d04c50fa20877,82
1,2,69,37,82,57,87,18,25,5128,Female,566ecd3728f3e43b275d04c50fa20877,39
1,2,70,55,73,55,92,79,22,5646,Female,566ecd3728f3e43b275d04c50fa20877,58
1,2,71,37,19,55,15,26,98,6740,Female,566ecd3728f3e43b275d04c50fa20877,32
1,2,72,64,64,42,59,42,48,4743,Female,566ecd3728f3e43b275d04c50fa20877,67
1,2,73,91,28,47,36,67,34,7605,Female,566ecd3728f3e43b275d04c50fa20877,93
1,2,74,55,91,53,85,65,3,3238,Female,566ecd3728f3e43b275d04c50fa20877,60
1,2,75,55,19,54,6,29,48,3805,Female,566ecd3728f3e43b275d04c50fa20877,52
1,2,76,37,46,48,40,12,16,10365,Female,566ecd3728f3e43b275d04c50fa20877,35
1,2,77,64,82,65,84,3,91,3664,Female,566ecd3728f3e43b275d04c50fa20877,69
1,2,78,28,46,10,35,10,90,6287,Female,566ecd3728f3e43b275d04c50fa20877,25
1,2,79,82,46,69,22,35,77,11201,Female,566ecd3728f3e43b275d04c50fa20877,85
1,2,80,73,64,80,36,18,100,5131,Female,566ecd3728f3e43b275d04c50fa20877,77
1,2,81,28,19,18,18,49,32,5358,Female,566ecd3728f3e43b275d04c50fa20877,22
1,2,82,19,73,23,22,12,48,2298,Female,566ecd3728f3e43b275d04c50fa20877,18
1,2,83,73,91,84,86,62,82,2193,Female,566ecd3728f3e43b275d04c50fa20877,80
1,2,84,64,91,75,92,9,92,2359,Female,566ecd3728f3e43b275d04c50fa20877,70
1,2,85,46,64,58,79,7,42,3849,Female,566ecd3728f3e43b275d04c50fa20877,47
1,2,86,91,73,72,81,10,89,4729,Female,566ecd3728f3e43b275d04c50fa20877,98
1,2,87,73,46,66,28,49,28,12013,Female,566ecd3728f3e43b275d04c50fa20877,75
1,2,88,73,73,69,70,90,70,1581,Female,566ecd3728f3e43b275d04c50fa20877,78
1,2,89,46,55,70,60,70,47,5280,Female,566ecd3728f3e43b275d04c50fa20877,46
1,2,90,19,46,33,63,41,6,4541,Female,566ecd3728f3e43b275d04c50fa20877,15
1,2,91,91,37,73,28,87,59,3982,Female,566ecd3728f3e43b275d04c50fa20877,94
1,2,92,82,91,80,78,1,1,2218,Female,566ecd3728f3e43b275d04c50fa20877,90
1,2,93,64,19,69,17,67,73,2906,Female,566ecd3728f3e43b275d04c50fa20877,62
1,2,94,91,10,94,13,94,36,2494,Female,566ecd3728f3e43b275d04c50fa20877,91
1,2,95,28,64,16,63,55,48,3195,Female,566ecd3728f3e43b275d04c50fa20877,27
1,2,96,10,19,4,7,97,41,2899,Female,566ecd3728f3e43b275d04c50fa20877,2
1,2,97,55,55,61,35,7,51,4017,Female,566ecd3728f3e43b275d04c50fa20877,56
1,2,98,37,73,26,84,68,69,2848,Female,566ecd3728f3e43b275d04c50fa20877,38
1,2,99,55,37,44,20,67,37,3235,Female,566ecd3728f3e43b275d04c50fa20877,54
1,1,0,64,55,25,33,86,56,11686,Female,b733cfc680f97d9812d50d73895bec81,66
1,1,1,73,37,63,37,53,5,7641,Female,b733cfc680f97d9812d50d73895bec81,74
1,1,2,37,64,42,69,17,45,12297,Female,b733cfc680f97d9812d50d73895bec81,37
1,1,3,46,64,73,77,1,53,7289,Female,b733cfc680f97d9812d50d73895bec81,47
1,1,4,64,10,60,8,60,76,5487,Female,b733cfc680f97d9812d50d73895bec81,61
1,1,5,19,28,44,21,10,94,94172,Female,b733cfc680f97d9812d50d73895bec81,13
1,1,6,28,91,25,87,2,87,16255,Female,b733cfc680f97d9812d50d73895bec81,30
1,1,7,91,91,97,93,52,85,37788,Female,b733cfc680f97d9812d50d73895bec81,100
1,1,8,46,10,78,10,1,68,7656,Female,b733cfc680f97d9812d50d73895bec81,41
1,1,9,82,46,72,41,76,82,13226,Female,b733cfc680f97d9812d50d73895bec81,85
1,1,10,19,91,95,96,32,5,6112,Female,b733cfc680f97d9812d50d73895bec81,20
1,1,11,82,10,97,1,44,99,6720,Female,b733cfc680f97d9812d50d73895bec81,81
1,1,12,19,55,69,98,33,45,8933,Female,b733cfc680f97d9812d50d73895bec81,16
1,1,13,10,19,38,5,14,99,6606,Female,b733cfc680f97d9812d50d73895bec81,2
1,1,14,10,55,69,57,15,15,84233,Female,b733cfc680f97d9812d50d73895bec81,6
1,1,15,91,55,1,1,23,90,6112,Female,b733cfc680f97d9812d50d73895bec81,96
1,1,16,28,46,12,34,80,87,23220,Female,b733cfc680f97d9812d50d73895bec81,25
1,1,17,64,28,63,23,68,35,8507,Female,b733cfc680f97d9812d50d73895bec81,63
1,1,18,64,64,82,59,4,76,195407,Female,b733cfc680f97d9812d50d73895bec81,67
1,1,19,64,46,86,49,11,81,5556,Female,b733cfc680f97d9812d50d73895bec81,65
1,1,20,28,37,10,27,100,73,11748,Female,b733cfc680f97d9812d50d73895bec81,24
1,1,21,73,10,23,1,9,28,5846,Female,b733cfc680f97d9812d50d73895bec81,71
1,1,22,28,19,9,22,97,40,223514,Female,b733cfc680f97d9812d50d73895bec81,22
1,1,23,19,82,32,78,70,83,16716,Female,b733cfc680f97d9812d50d73895bec81,19
1,1,24,91,28,37,52,78,84,10166,Female,b733cfc680f97d9812d50d73895bec81,93
1,1,25,46,46,59,35,1,47,9355,Female,b733cfc680f97d9812d50d73895bec81,45
1,1,26,37,82,70,78,44,81,16061,Female,b733cfc680f97d9812d50d73895bec81,39
1,1,27,73,28,53,46,29,60,6554,Female,b733cfc680f97d9812d50d73895bec81,73
1,1,28,19,46,39,50,53,50,8711,Female,b733cfc680f97d9812d50d73895bec81,15
1,1,29,91,64,93,22,93,22,124769,Female,b733cfc680f97d9812d50d73895bec81,97
1,1,30,19,73,40,83,20,99,8285,Female,b733cfc680f97d9812d50d73895bec81,18
1,1,31,28,82,57,83,79,83,2968,Female,b733cfc680f97d9812d50d73895bec81,29
1,1,32,28,55,40,66,28,24,9270,Female,b733cfc680f97d9812d50d73895bec81,26
1,1,33,10,10,33,18,33,71,9455,Female,b733cfc680f97d9812d50d73895bec81,1
1,1,34,73,46,44,61,84,9,103893,Female,b733cfc680f97d9812d50d73895bec81,75
1,1,35,46,37,78,27,1,99,9868,Female,b733cfc680f97d9812d50d73895bec81,44
1,1,36,37,91,31,98,90,3,7198,Female,b733cfc680f97d9812d50d73895bec81,40
1,1,37,10,28,8,29,94,74,49117,Female,b733cfc680f97d9812d50d73895bec81,3
1,1,38,64,91,89,100,44,42,11633,Female,b733cfc680f97d9812d50d73895bec81,70
1,1,39,37,10,86,3,69,56,8861,Female,b733cfc680f97d9812d50d73895bec81,31
1,1,40,46,19,29,68,29,68,150484,Female,b733cfc680f97d9812d50d73895bec81,42
1,1,41,91,82,81,74,38,79,8532,Female,b733cfc680f97d9812d50d73895bec81,99
1,1,42,28,73,61,53,6,84,8246,Female,b733cfc680f97d9812d50d73895bec81,28
1,1,43,91,73,98,76,54,53,9431,Female,b733cfc680f97d9812d50d73895bec81,98
1,1,44,37,37,63,30,63,61,9645,Female,b733cfc680f97d9812d50d73895bec81,34
1,1,45,55,64,76,53,32,16,5163,Female,b733cfc680f97d9812d50d73895bec81,57
1,1,46,19,37,27,22,19,68,15896,Female,b733cfc680f97d9812d50d73895bec81,14
1,1,47,64,73,30,61,100,51,10196,Female,b733cfc680f97d9812d50d73895bec81,68
1,1,48,55,10,45,10,77,100,10534,Female,b733cfc680f97d9812d50d73895bec81,51
1,1,49,73,55,45,53,48,64,6848,Female,b733cfc680f97d9812d50d73895bec81,76
1,1,50,37,28,77,72,77,72,56320,Female,b733cfc680f97d9812d50d73895bec81,33
1,1,51,82,91,71,83,36,63,166251,Female,b733cfc680f97d9812d50d73895bec81,90
1,1,52,82,64,90,69,5,51,9470,Female,b733cfc680f97d9812d50d73895bec81,87
1,1,53,64,82,93,81,35,48,8565,Female,b733cfc680f97d9812d50d73895bec81,69
1,1,54,46,28,42,75,37,40,7828,Female,b733cfc680f97d9812d50d73895bec81,43
1,1,55,46,91,67,84,21,5,17334,Female,b733cfc680f97d9812d50d73895bec81,50
1,1,56,73,82,2,85,2,85,197643,Female,b733cfc680f97d9812d50d73895bec81,79
1,1,57,82,82,74,82,11,18,7986,Female,b733cfc680f97d9812d50d73895bec81,89
1,1,58,28,10,55,11,95,71,18726,Female,b733cfc680f97d9812d50d73895bec81,21
1,1,59,55,82,70,89,88,58,7879,Female,b733cfc680f97d9812d50d73895bec81,59
1,1,60,73,19,44,18,89,55,8734,Female,b733cfc680f97d9812d50d73895bec81,72
1,1,61,55,37,33,9,63,61,12010,Female,b733cfc680f97d9812d50d73895bec81,54
1,1,62,10,46,32,56,25,24,11612,Female,b733cfc680f97d9812d50d73895bec81,5
1,1,63,64,37,29,45,1,48,7586,Female,b733cfc680f97d9812d50d73895bec81,64
1,1,64,91,19,70,13,24,85,10171,Female,b733cfc680f97d9812d50d73895bec81,92
1,1,65,46,55,81,76,8,72,9598,Female,b733cfc680f97d9812d50d73895bec81,46
1,1,66,55,91,20,98,98,99,7534,Female,b733cfc680f97d9812d50d73895bec81,60
1,1,67,91,37,32,80,43,26,6834,Female,b733cfc680f97d9812d50d73895bec81,94
1,1,68,37,73,42,84,29,54,4943,Female,b733cfc680f97d9812d50d73895bec81,38
1,1,69,73,91,27,100,27,100,1390223,Female,b733cfc680f97d9812d50d73895bec81,80
1,1,70,10,37,72,59,28,33,7804,Female,b733cfc680f97d9812d50d73895bec81,4
1,1,71,82,73,50,96,50,96,1752,Female,b733cfc680f97d9812d50d73895bec81,88
1,1,72,55,73,2,97,80,59,7246,Female,b733cfc680f97d9812d50d73895bec81,58
1,1,73,10,82,37,72,14,97,6562,Female,b733cfc680f97d9812d50d73895bec81,9
1,1,74,91,46,81,47,27,35,7147,Female,b733cfc680f97d9812d50d73895bec81,95
1,1,75,19,10,4,4,84,60,10384,Female,b733cfc680f97d9812d50d73895bec81,11
1,1,76,64,19,68,12,13,10,10809,Female,b733cfc680f97d9812d50d73895bec81,62
1,1,77,37,55,47,68,35,61,6386,Female,b733cfc680f97d9812d50d73895bec81,36
1,1,78,55,19,17,36,10,96,4977,Female,b733cfc680f97d9812d50d73895bec81,52
1,1,79,55,28,55,20,13,21,11728,Female,b733cfc680f97d9812d50d73895bec81,53
1,1,80,91,10,36,27,12,80,10223,Female,b733cfc680f97d9812d50d73895bec81,91
1,1,81,10,64,49,36,15,98,9503,Female,b733cfc680f97d9812d50d73895bec81,7
1,1,82,46,73,50,74,60,69,11256,Female,b733cfc680f97d9812d50d73895bec81,48
1,1,83,82,37,61,26,17,97,8074,Female,b733cfc680f97d9812d50d73895bec81,84
1,1,84,28,64,56,75,17,23,7801,Female,b733cfc680f97d9812d50d73895bec81,27
1,1,85,82,55,40,60,51,27,6261,Female,b733cfc680f97d9812d50d73895bec81,86
1,1,86,19,19,30,12,93,20,8454,Female,b733cfc680f97d9812d50d73895bec81,12
1,1,87,37,19,19,8,93,21,5516,Female,b733cfc680f97d9812d50d73895bec81,32
1,1,88,10,91,73,89,84,80,9043,Female,b733cfc680f97d9812d50d73895bec81,10
1,1,89,46,82,65,77,50,20,6154,Female,b733cfc680f97d9812d50d73895bec81,49
1,1,90,73,73,45,75,45,75,199446,Female,b733cfc680f97d9812d50d73895bec81,78
1,1,91,10,73,13,45,13,45,1557,Female,b733cfc680f97d9812d50d73895bec81,8
1,1,92,55,55,48,57,84,78,7053,Female,b733cfc680f97d9812d50d73895bec81,56
1,1,93,55,46,76,37,74,37,5908,Female,b733cfc680f97d9812d50d73895bec81,55
1,1,94,82,19,60,19,24,23,8032,Female,b733cfc680f97d9812d50d73895bec81,82
