n_categories,trial_id,x1_true,x2_true,cat_true,response,accuracy,rt,participant_id
4,0,73,82,4,1,0,2615,ef1f80fc1e2fff621a6df71da886514a
4,1,37,82,2,4,0,937,ef1f80fc1e2fff621a6df71da886514a
4,2,73,10,3,1,0,1086,ef1f80fc1e2fff621a6df71da886514a
4,3,28,37,1,1,1,995,ef1f80fc1e2fff621a6df71da886514a
4,4,10,10,1,1,1,1122,ef1f80fc1e2fff621a6df71da886514a
4,5,19,46,1,2,0,987,ef1f80fc1e2fff621a6df71da886514a
4,6,91,10,3,1,0,1153,ef1f80fc1e2fff621a6df71da886514a
4,7,10,55,2,4,0,1361,ef1f80fc1e2fff621a6df71da886514a
4,8,64,64,4,3,0,1687,ef1f80fc1e2fff621a6df71da886514a
4,9,55,55,4,4,1,901,ef1f80fc1e2fff621a6df71da886514a
4,10,82,55,4,4,1,1292,ef1f80fc1e2fff621a6df71da886514a
4,11,46,73,2,4,0,963,ef1f80fc1e2fff621a6df71da886514a
4,12,64,55,4,3,0,1627,ef1f80fc1e2fff621a6df71da886514a
4,13,10,73,2,2,1,1705,ef1f80fc1e2fff621a6df71da886514a
4,14,73,46,3,3,1,2032,ef1f80fc1e2fff621a6df71da886514a
4,15,82,82,4,4,1,1629,ef1f80fc1e2fff621a6df71da886514a
4,16,73,73,4,4,1,1075,ef1f80fc1e2fff621a6df71da886514a
4,17,91,64,4,4,1,1135,ef1f80fc1e2fff621a6df71da886514a
4,18,82,64,4,4,1,1113,ef1f80fc1e2fff621a6df71da886514a
4,19,19,55,2,2,1,1731,ef1f80fc1e2fff621a6df71da886514a
4,20,28,19,1,3,0,1341,ef1f80fc1e2fff621a6df71da886514a
4,21,37,28,1,1,1,899,ef1f80fc1e2fff621a6df71da886514a
4,22,28,46,1,2,0,1487,ef1f80fc1e2fff621a6df71da886514a
4,23,91,37,3,3,1,1486,ef1f80fc1e2fff621a6df71da886514a
4,24,64,46,3,3,1,1229,ef1f80fc1e2fff621a6df71da886514a
4,25,28,10,1,3,0,942,ef1f80fc1e2fff621a6df71da886514a
4,26,28,28,1,1,1,882,ef1f80fc1e2fff621a6df71da886514a
4,27,37,73,2,4,0,1343,ef1f80fc1e2fff621a6df71da886514a
4,28,73,64,4,4,1,1906,ef1f80fc1e2fff621a6df71da886514a
4,29,82,91,4,4,1,1203,ef1f80fc1e2fff621a6df71da886514a
4,30,46,55,2,3,0,2101,ef1f80fc1e2fff621a6df71da886514a
4,31,73,19,3,2,0,1845,ef1f80fc1e2fff621a6df71da886514a
4,32,19,73,2,1,0,1890,ef1f80fc1e2fff621a6df71da886514a
4,33,28,91,2,2,1,1637,ef1f80fc1e2fff621a6df71da886514a
4,34,19,64,2,3,0,1995,ef1f80fc1e2fff621a6df71da886514a
4,35,91,91,4,4,1,1239,ef1f80fc1e2fff621a6df71da886514a
4,36,82,46,3,3,1,2303,ef1f80fc1e2fff621a6df71da886514a
4,37,55,37,3,2,0,1807,ef1f80fc1e2fff621a6df71da886514a
4,38,64,10,3,3,1,2427,ef1f80fc1e2fff621a6df71da886514a
4,39,19,28,1,1,1,1939,ef1f80fc1e2fff621a6df71da886514a
4,40,37,91,2,3,0,1706,ef1f80fc1e2fff621a6df71da886514a
4,41,37,37,1,1,1,977,ef1f80fc1e2fff621a6df71da886514a
4,42,55,91,4,3,0,1817,ef1f80fc1e2fff621a6df71da886514a
4,43,46,28,1,1,1,1166,ef1f80fc1e2fff621a6df71da886514a
4,44,64,37,3,1,0,1014,ef1f80fc1e2fff621a6df71da886514a
4,45,46,91,2,4,0,1543,ef1f80fc1e2fff621a6df71da886514a
4,46,82,37,3,3,1,1855,ef1f80fc1e2fff621a6df71da886514a
4,47,10,64,2,2,1,1964,ef1f80fc1e2fff621a6df71da886514a
4,48,91,82,4,4,1,1269,ef1f80fc1e2fff621a6df71da886514a
4,49,55,46,3,2,0,2179,ef1f80fc1e2fff621a6df71da886514a
4,50,91,19,3,3,1,1665,ef1f80fc1e2fff621a6df71da886514a
4,51,91,46,3,3,1,2179,ef1f80fc1e2fff621a6df71da886514a
4,52,73,55,4,4,1,2051,ef1f80fc1e2fff621a6df71da886514a
4,53,37,55,2,2,1,2031,ef1f80fc1e2fff621a6df71da886514a
4,54,10,82,2,2,1,1535,ef1f80fc1e2fff621a6df71da886514a
4,55,64,82,4,2,0,1857,ef1f80fc1e2fff621a6df71da886514a
4,56,82,28,3,3,1,1332,ef1f80fc1e2fff621a6df71da886514a
4,57,19,82,2,3,0,2384,ef1f80fc1e2fff621a6df71da886514a
4,58,46,37,1,3,0,1811,ef1f80fc1e2fff621a6df71da886514a
4,59,46,82,2,2,1,1957,ef1f80fc1e2fff621a6df71da886514a
4,60,28,64,2,2,1,1307,ef1f80fc1e2fff621a6df71da886514a
4,61,82,73,4,4,1,1847,ef1f80fc1e2fff621a6df71da886514a
4,62,28,82,2,2,1,1326,ef1f80fc1e2fff621a6df71da886514a
4,63,46,10,1,1,1,2685,ef1f80fc1e2fff621a6df71da886514a
4,64,37,10,1,1,1,883,ef1f80fc1e2fff621a6df71da886514a
4,65,37,64,2,2,1,1101,ef1f80fc1e2fff621a6df71da886514a
4,66,19,19,1,1,1,1083,ef1f80fc1e2fff621a6df71da886514a
4,67,19,10,1,1,1,955,ef1f80fc1e2fff621a6df71da886514a
4,68,28,55,2,2,1,1459,ef1f80fc1e2fff621a6df71da886514a
4,69,64,19,3,1,0,1859,ef1f80fc1e2fff621a6df71da886514a
4,70,64,28,3,3,1,1151,ef1f80fc1e2fff621a6df71da886514a
4,71,28,73,2,4,0,1351,ef1f80fc1e2fff621a6df71da886514a
4,72,64,91,4,4,1,1427,ef1f80fc1e2fff621a6df71da886514a
4,73,37,19,1,1,1,1903,ef1f80fc1e2fff621a6df71da886514a
4,74,19,37,1,1,1,1187,ef1f80fc1e2fff621a6df71da886514a
4,75,19,91,2,2,1,1115,ef1f80fc1e2fff621a6df71da886514a
4,76,82,19,3,3,1,2183,ef1f80fc1e2fff621a6df71da886514a
4,77,55,73,4,4,1,1831,ef1f80fc1e2fff621a6df71da886514a
4,78,10,19,1,1,1,1435,ef1f80fc1e2fff621a6df71da886514a
4,79,10,37,1,1,1,1655,ef1f80fc1e2fff621a6df71da886514a
4,80,64,73,4,4,1,1065,ef1f80fc1e2fff621a6df71da886514a
4,81,73,37,3,3,1,1383,ef1f80fc1e2fff621a6df71da886514a
4,82,73,28,3,3,1,1835,ef1f80fc1e2fff621a6df71da886514a
4,83,91,73,4,4,1,1267,ef1f80fc1e2fff621a6df71da886514a
4,84,55,19,3,1,0,2183,ef1f80fc1e2fff621a6df71da886514a
4,85,55,82,4,4,1,1242,ef1f80fc1e2fff621a6df71da886514a
4,86,82,10,3,3,1,1194,ef1f80fc1e2fff621a6df71da886514a
4,87,46,64,2,4,0,2195,ef1f80fc1e2fff621a6df71da886514a
4,88,10,28,1,1,1,1130,ef1f80fc1e2fff621a6df71da886514a
4,89,37,46,1,2,0,1103,ef1f80fc1e2fff621a6df71da886514a
4,90,91,55,4,4,1,1691,ef1f80fc1e2fff621a6df71da886514a
4,91,91,28,3,3,1,1167,ef1f80fc1e2fff621a6df71da886514a
4,92,10,46,1,2,0,2499,ef1f80fc1e2fff621a6df71da886514a
4,93,46,46,1,2,0,1979,ef1f80fc1e2fff621a6df71da886514a
4,94,55,64,4,2,0,1595,ef1f80fc1e2fff621a6df71da886514a
4,95,10,91,2,2,1,1647,ef1f80fc1e2fff621a6df71da886514a
4,96,55,28,3,1,0,1475,ef1f80fc1e2fff621a6df71da886514a
4,97,46,19,1,1,1,1459,ef1f80fc1e2fff621a6df71da886514a
4,98,73,91,4,4,1,1053,ef1f80fc1e2fff621a6df71da886514a
4,99,55,10,3,3,1,1972,ef1f80fc1e2fff621a6df71da886514a
4,100,28,91,2,2,1,3045,ef1f80fc1e2fff621a6df71da886514a
4,101,28,55,2,2,1,1716,ef1f80fc1e2fff621a6df71da886514a
4,102,10,19,1,1,1,889,ef1f80fc1e2fff621a6df71da886514a
4,103,10,64,2,2,1,2094,ef1f80fc1e2fff621a6df71da886514a
4,104,28,28,1,1,1,880,ef1f80fc1e2fff621a6df71da886514a
4,105,91,91,4,4,1,869,ef1f80fc1e2fff621a6df71da886514a
4,106,91,46,3,3,1,1213,ef1f80fc1e2fff621a6df71da886514a
4,107,28,37,1,1,1,1221,ef1f80fc1e2fff621a6df71da886514a
4,108,91,55,4,4,1,1946,ef1f80fc1e2fff621a6df71da886514a
4,109,82,73,4,4,1,828,ef1f80fc1e2fff621a6df71da886514a
4,110,19,91,2,2,1,2687,ef1f80fc1e2fff621a6df71da886514a
4,111,64,19,3,3,1,1363,ef1f80fc1e2fff621a6df71da886514a
4,112,91,37,3,3,1,1096,ef1f80fc1e2fff621a6df71da886514a
4,113,10,28,1,1,1,1063,ef1f80fc1e2fff621a6df71da886514a
4,114,55,82,4,4,1,920,ef1f80fc1e2fff621a6df71da886514a
4,115,37,64,2,4,0,1827,ef1f80fc1e2fff621a6df71da886514a
4,116,82,19,3,3,1,1179,ef1f80fc1e2fff621a6df71da886514a
4,117,46,10,1,1,1,1878,ef1f80fc1e2fff621a6df71da886514a
4,118,82,82,4,4,1,934,ef1f80fc1e2fff621a6df71da886514a
4,119,19,55,2,2,1,1337,ef1f80fc1e2fff621a6df71da886514a
4,120,46,37,1,1,1,1466,ef1f80fc1e2fff621a6df71da886514a
4,121,73,82,4,4,1,1212,ef1f80fc1e2fff621a6df71da886514a
4,122,73,19,3,3,1,912,ef1f80fc1e2fff621a6df71da886514a
4,123,19,46,1,1,1,1531,ef1f80fc1e2fff621a6df71da886514a
4,124,46,46,1,2,0,1670,ef1f80fc1e2fff621a6df71da886514a
4,125,55,28,3,3,1,1888,ef1f80fc1e2fff621a6df71da886514a
4,126,55,37,3,3,1,1111,ef1f80fc1e2fff621a6df71da886514a
4,127,73,91,4,4,1,951,ef1f80fc1e2fff621a6df71da886514a
4,128,73,64,4,4,1,945,ef1f80fc1e2fff621a6df71da886514a
4,129,19,37,1,1,1,1112,ef1f80fc1e2fff621a6df71da886514a
4,130,46,19,1,1,1,1417,ef1f80fc1e2fff621a6df71da886514a
4,131,10,91,2,2,1,1075,ef1f80fc1e2fff621a6df71da886514a
4,132,64,55,4,3,0,1620,ef1f80fc1e2fff621a6df71da886514a
4,133,46,73,2,4,0,1647,ef1f80fc1e2fff621a6df71da886514a
4,134,73,28,3,3,1,1071,ef1f80fc1e2fff621a6df71da886514a
4,135,91,28,3,3,1,1075,ef1f80fc1e2fff621a6df71da886514a
4,136,28,82,2,2,1,1377,ef1f80fc1e2fff621a6df71da886514a
4,137,19,28,1,1,1,936,ef1f80fc1e2fff621a6df71da886514a
4,138,37,10,1,1,1,822,ef1f80fc1e2fff621a6df71da886514a
4,139,46,28,1,1,1,1245,ef1f80fc1e2fff621a6df71da886514a
4,140,55,91,4,2,0,846,ef1f80fc1e2fff621a6df71da886514a
4,141,28,10,1,1,1,992,ef1f80fc1e2fff621a6df71da886514a
4,142,64,82,4,4,1,958,ef1f80fc1e2fff621a6df71da886514a
4,143,28,19,1,1,1,1071,ef1f80fc1e2fff621a6df71da886514a
4,144,64,73,4,4,1,1217,ef1f80fc1e2fff621a6df71da886514a
4,145,64,10,3,3,1,986,ef1f80fc1e2fff621a6df71da886514a
4,146,91,64,4,4,1,1080,ef1f80fc1e2fff621a6df71da886514a
4,147,10,55,2,2,1,1356,ef1f80fc1e2fff621a6df71da886514a
4,148,91,73,4,4,1,923,ef1f80fc1e2fff621a6df71da886514a
4,149,19,82,2,2,1,1099,ef1f80fc1e2fff621a6df71da886514a
4,150,37,73,2,2,1,2113,ef1f80fc1e2fff621a6df71da886514a
4,151,28,73,2,2,1,1255,ef1f80fc1e2fff621a6df71da886514a
4,152,10,37,1,1,1,902,ef1f80fc1e2fff621a6df71da886514a
4,153,91,10,3,3,1,1222,ef1f80fc1e2fff621a6df71da886514a
4,154,73,37,3,3,1,962,ef1f80fc1e2fff621a6df71da886514a
4,155,55,10,3,1,0,1962,ef1f80fc1e2fff621a6df71da886514a
4,156,46,82,2,2,1,2027,ef1f80fc1e2fff621a6df71da886514a
4,157,10,10,1,1,1,1205,ef1f80fc1e2fff621a6df71da886514a
4,158,64,37,3,3,1,1643,ef1f80fc1e2fff621a6df71da886514a
4,159,37,91,2,3,0,1466,ef1f80fc1e2fff621a6df71da886514a
4,160,55,46,3,3,1,1140,ef1f80fc1e2fff621a6df71da886514a
4,161,82,28,3,3,1,1330,ef1f80fc1e2fff621a6df71da886514a
4,162,19,73,2,2,1,1125,ef1f80fc1e2fff621a6df71da886514a
4,163,55,73,4,3,0,1498,ef1f80fc1e2fff621a6df71da886514a
4,164,46,55,2,4,0,2236,ef1f80fc1e2fff621a6df71da886514a
4,165,28,64,2,2,1,1744,ef1f80fc1e2fff621a6df71da886514a
4,166,82,37,3,3,1,1322,ef1f80fc1e2fff621a6df71da886514a
4,167,64,64,4,3,0,1354,ef1f80fc1e2fff621a6df71da886514a
4,168,64,91,4,4,1,1568,ef1f80fc1e2fff621a6df71da886514a
4,169,82,64,4,4,1,1139,ef1f80fc1e2fff621a6df71da886514a
4,170,91,19,3,3,1,1190,ef1f80fc1e2fff621a6df71da886514a
4,171,82,91,4,4,1,985,ef1f80fc1e2fff621a6df71da886514a
4,172,73,73,4,4,1,789,ef1f80fc1e2fff621a6df71da886514a
4,173,82,55,4,4,1,1183,ef1f80fc1e2fff621a6df71da886514a
4,174,82,10,3,3,1,847,ef1f80fc1e2fff621a6df71da886514a
4,175,10,46,1,2,0,1266,ef1f80fc1e2fff621a6df71da886514a
4,176,37,19,1,1,1,812,ef1f80fc1e2fff621a6df71da886514a
4,177,46,91,2,2,1,1561,ef1f80fc1e2fff621a6df71da886514a
4,178,19,19,1,1,1,966,ef1f80fc1e2fff621a6df71da886514a
4,179,55,55,4,2,0,1375,ef1f80fc1e2fff621a6df71da886514a
4,180,55,64,4,4,1,1004,ef1f80fc1e2fff621a6df71da886514a
4,181,19,10,1,1,1,837,ef1f80fc1e2fff621a6df71da886514a
4,182,64,46,3,2,0,1370,ef1f80fc1e2fff621a6df71da886514a
4,183,64,28,3,3,1,1198,ef1f80fc1e2fff621a6df71da886514a
4,184,37,82,2,2,1,2281,ef1f80fc1e2fff621a6df71da886514a
4,185,73,10,3,3,1,1005,ef1f80fc1e2fff621a6df71da886514a
4,186,55,19,3,3,1,880,ef1f80fc1e2fff621a6df71da886514a
4,187,37,37,1,1,1,1378,ef1f80fc1e2fff621a6df71da886514a
4,188,37,28,1,1,1,845,ef1f80fc1e2fff621a6df71da886514a
4,189,28,46,1,2,0,1215,ef1f80fc1e2fff621a6df71da886514a
4,190,19,64,2,2,1,1032,ef1f80fc1e2fff621a6df71da886514a
4,191,37,55,2,2,1,1063,ef1f80fc1e2fff621a6df71da886514a
4,192,46,64,2,2,1,974,ef1f80fc1e2fff621a6df71da886514a
4,193,10,73,2,2,1,1078,ef1f80fc1e2fff621a6df71da886514a
4,194,91,82,4,4,1,1145,ef1f80fc1e2fff621a6df71da886514a
4,195,82,46,3,3,1,1591,ef1f80fc1e2fff621a6df71da886514a
4,196,73,46,3,3,1,1428,ef1f80fc1e2fff621a6df71da886514a
4,197,10,82,2,2,1,1088,ef1f80fc1e2fff621a6df71da886514a
4,198,37,46,1,2,0,1328,ef1f80fc1e2fff621a6df71da886514a
4,199,73,55,4,4,1,1918,ef1f80fc1e2fff621a6df71da886514a
4,200,55,19,3,1,0,3417,ef1f80fc1e2fff621a6df71da886514a
4,201,28,28,1,1,1,1332,ef1f80fc1e2fff621a6df71da886514a
4,202,19,55,2,2,1,912,ef1f80fc1e2fff621a6df71da886514a
4,203,91,19,3,4,0,1078,ef1f80fc1e2fff621a6df71da886514a
4,204,10,73,2,2,1,1152,ef1f80fc1e2fff621a6df71da886514a
4,205,46,55,2,2,1,1111,ef1f80fc1e2fff621a6df71da886514a
4,206,82,37,3,3,1,1255,ef1f80fc1e2fff621a6df71da886514a
4,207,10,64,2,2,1,1037,ef1f80fc1e2fff621a6df71da886514a
4,208,73,10,3,3,1,1144,ef1f80fc1e2fff621a6df71da886514a
4,209,64,91,4,4,1,934,ef1f80fc1e2fff621a6df71da886514a
4,210,55,28,3,3,1,808,ef1f80fc1e2fff621a6df71da886514a
4,211,82,55,4,3,0,1249,ef1f80fc1e2fff621a6df71da886514a
4,212,64,73,4,4,1,875,ef1f80fc1e2fff621a6df71da886514a
4,213,10,19,1,1,1,1407,ef1f80fc1e2fff621a6df71da886514a
4,214,10,46,1,1,1,1226,ef1f80fc1e2fff621a6df71da886514a
4,215,82,82,4,4,1,922,ef1f80fc1e2fff621a6df71da886514a
4,216,46,82,2,4,0,2357,ef1f80fc1e2fff621a6df71da886514a
4,217,19,82,2,2,1,1295,ef1f80fc1e2fff621a6df71da886514a
4,218,19,64,2,2,1,781,ef1f80fc1e2fff621a6df71da886514a
4,219,64,28,3,1,0,1553,ef1f80fc1e2fff621a6df71da886514a
4,220,73,19,3,3,1,1110,ef1f80fc1e2fff621a6df71da886514a
4,221,91,91,4,4,1,921,ef1f80fc1e2fff621a6df71da886514a
4,222,82,73,4,4,1,816,ef1f80fc1e2fff621a6df71da886514a
4,223,73,64,4,4,1,1277,ef1f80fc1e2fff621a6df71da886514a
4,224,37,82,2,2,1,1842,ef1f80fc1e2fff621a6df71da886514a
4,225,91,55,4,3,0,1941,ef1f80fc1e2fff621a6df71da886514a
4,226,82,28,3,3,1,1036,ef1f80fc1e2fff621a6df71da886514a
4,227,46,46,1,1,1,1147,ef1f80fc1e2fff621a6df71da886514a
4,228,37,10,1,1,1,785,ef1f80fc1e2fff621a6df71da886514a
4,229,82,46,3,3,1,1833,ef1f80fc1e2fff621a6df71da886514a
4,230,46,73,2,2,1,1124,ef1f80fc1e2fff621a6df71da886514a
4,231,46,28,1,1,1,1279,ef1f80fc1e2fff621a6df71da886514a
4,232,91,64,4,4,1,1212,ef1f80fc1e2fff621a6df71da886514a
4,233,55,55,4,2,0,1697,ef1f80fc1e2fff621a6df71da886514a
4,234,37,91,2,2,1,1141,ef1f80fc1e2fff621a6df71da886514a
4,235,28,55,2,2,1,1193,ef1f80fc1e2fff621a6df71da886514a
4,236,10,10,1,1,1,917,ef1f80fc1e2fff621a6df71da886514a
4,237,64,10,3,1,0,1446,ef1f80fc1e2fff621a6df71da886514a
4,238,46,37,1,3,0,1037,ef1f80fc1e2fff621a6df71da886514a
4,239,55,91,4,4,1,1263,ef1f80fc1e2fff621a6df71da886514a
4,240,19,73,2,2,1,940,ef1f80fc1e2fff621a6df71da886514a
4,241,46,91,2,2,1,1055,ef1f80fc1e2fff621a6df71da886514a
4,242,73,46,3,3,1,1126,ef1f80fc1e2fff621a6df71da886514a
4,243,91,82,4,4,1,1129,ef1f80fc1e2fff621a6df71da886514a
4,244,46,19,1,1,1,1265,ef1f80fc1e2fff621a6df71da886514a
4,245,91,10,3,3,1,1175,ef1f80fc1e2fff621a6df71da886514a
4,246,55,64,4,4,1,2213,ef1f80fc1e2fff621a6df71da886514a
4,247,55,10,3,3,1,1163,ef1f80fc1e2fff621a6df71da886514a
4,248,28,10,1,1,1,1188,ef1f80fc1e2fff621a6df71da886514a
4,249,64,55,4,3,0,1192,ef1f80fc1e2fff621a6df71da886514a
4,250,19,46,1,2,0,1158,ef1f80fc1e2fff621a6df71da886514a
4,251,46,10,1,1,1,998,ef1f80fc1e2fff621a6df71da886514a
4,252,37,55,2,2,1,925,ef1f80fc1e2fff621a6df71da886514a
4,253,82,91,4,4,1,959,ef1f80fc1e2fff621a6df71da886514a
4,254,55,46,3,3,1,1521,ef1f80fc1e2fff621a6df71da886514a
4,255,19,91,2,2,1,1083,ef1f80fc1e2fff621a6df71da886514a
4,256,10,82,2,2,1,1104,ef1f80fc1e2fff621a6df71da886514a
4,257,19,10,1,1,1,786,ef1f80fc1e2fff621a6df71da886514a
4,258,28,91,2,2,1,789,ef1f80fc1e2fff621a6df71da886514a
4,259,82,10,3,3,1,1201,ef1f80fc1e2fff621a6df71da886514a
4,260,91,28,3,3,1,1041,ef1f80fc1e2fff621a6df71da886514a
4,261,28,19,1,1,1,929,ef1f80fc1e2fff621a6df71da886514a
4,262,10,91,2,2,1,794,ef1f80fc1e2fff621a6df71da886514a
4,263,73,91,4,4,1,1286,ef1f80fc1e2fff621a6df71da886514a
4,264,19,19,1,1,1,818,ef1f80fc1e2fff621a6df71da886514a
4,265,46,64,2,2,1,1261,ef1f80fc1e2fff621a6df71da886514a
4,266,64,46,3,1,0,1177,ef1f80fc1e2fff621a6df71da886514a
4,267,37,28,1,3,0,1464,ef1f80fc1e2fff621a6df71da886514a
4,268,55,73,4,2,0,1234,ef1f80fc1e2fff621a6df71da886514a
4,269,10,55,2,2,1,1051,ef1f80fc1e2fff621a6df71da886514a
4,270,37,73,2,2,1,1041,ef1f80fc1e2fff621a6df71da886514a
4,271,28,82,2,2,1,882,ef1f80fc1e2fff621a6df71da886514a
4,272,82,64,4,4,1,1655,ef1f80fc1e2fff621a6df71da886514a
4,273,28,37,1,1,1,1601,ef1f80fc1e2fff621a6df71da886514a
4,274,55,82,4,4,1,2184,ef1f80fc1e2fff621a6df71da886514a
4,275,73,28,3,3,1,993,ef1f80fc1e2fff621a6df71da886514a
4,276,91,73,4,4,1,1090,ef1f80fc1e2fff621a6df71da886514a
4,277,37,64,2,2,1,2562,ef1f80fc1e2fff621a6df71da886514a
4,278,91,46,3,3,1,1163,ef1f80fc1e2fff621a6df71da886514a
4,279,64,82,4,4,1,885,ef1f80fc1e2fff621a6df71da886514a
4,280,64,64,4,4,1,852,ef1f80fc1e2fff621a6df71da886514a
4,281,73,82,4,4,1,846,ef1f80fc1e2fff621a6df71da886514a
4,282,10,37,1,1,1,976,ef1f80fc1e2fff621a6df71da886514a
4,283,73,55,4,4,1,1959,ef1f80fc1e2fff621a6df71da886514a
4,284,19,28,1,1,1,882,ef1f80fc1e2fff621a6df71da886514a
4,285,64,19,3,3,1,1174,ef1f80fc1e2fff621a6df71da886514a
4,286,28,64,2,2,1,1094,ef1f80fc1e2fff621a6df71da886514a
4,287,37,46,1,1,1,838,ef1f80fc1e2fff621a6df71da886514a
4,288,37,37,1,1,1,921,ef1f80fc1e2fff621a6df71da886514a
4,289,28,46,1,2,0,1747,ef1f80fc1e2fff621a6df71da886514a
4,290,10,28,1,1,1,668,ef1f80fc1e2fff621a6df71da886514a
4,291,91,37,3,3,1,1080,ef1f80fc1e2fff621a6df71da886514a
4,292,19,37,1,1,1,864,ef1f80fc1e2fff621a6df71da886514a
4,293,55,37,3,3,1,1548,ef1f80fc1e2fff621a6df71da886514a
4,294,82,19,3,3,1,1142,ef1f80fc1e2fff621a6df71da886514a
4,295,64,37,3,3,1,778,ef1f80fc1e2fff621a6df71da886514a
4,296,73,73,4,4,1,975,ef1f80fc1e2fff621a6df71da886514a
4,297,28,73,2,2,1,908,ef1f80fc1e2fff621a6df71da886514a
4,298,37,19,1,1,1,831,ef1f80fc1e2fff621a6df71da886514a
4,299,73,37,3,3,1,1016,ef1f80fc1e2fff621a6df71da886514a
4,300,64,73,4,4,1,1558,ef1f80fc1e2fff621a6df71da886514a
4,301,82,55,4,4,1,1015,ef1f80fc1e2fff621a6df71da886514a
4,302,46,91,2,2,1,2214,ef1f80fc1e2fff621a6df71da886514a
4,303,10,82,2,2,1,909,ef1f80fc1e2fff621a6df71da886514a
4,304,28,46,1,1,1,1019,ef1f80fc1e2fff621a6df71da886514a
4,305,37,73,2,2,1,832,ef1f80fc1e2fff621a6df71da886514a
4,306,73,28,3,3,1,1031,ef1f80fc1e2fff621a6df71da886514a
4,307,37,10,1,1,1,937,ef1f80fc1e2fff621a6df71da886514a
4,308,91,19,3,3,1,1373,ef1f80fc1e2fff621a6df71da886514a
4,309,55,19,3,1,0,1071,ef1f80fc1e2fff621a6df71da886514a
4,310,28,55,2,2,1,1122,ef1f80fc1e2fff621a6df71da886514a
4,311,46,10,1,1,1,942,ef1f80fc1e2fff621a6df71da886514a
4,312,73,82,4,4,1,902,ef1f80fc1e2fff621a6df71da886514a
4,313,82,19,3,3,1,868,ef1f80fc1e2fff621a6df71da886514a
4,314,55,37,3,3,1,1176,ef1f80fc1e2fff621a6df71da886514a
4,315,28,28,1,1,1,725,ef1f80fc1e2fff621a6df71da886514a
4,316,28,19,1,1,1,711,ef1f80fc1e2fff621a6df71da886514a
4,317,82,64,4,4,1,1107,ef1f80fc1e2fff621a6df71da886514a
4,318,19,73,2,2,1,1908,ef1f80fc1e2fff621a6df71da886514a
4,319,28,64,2,2,1,854,ef1f80fc1e2fff621a6df71da886514a
4,320,46,82,2,2,1,932,ef1f80fc1e2fff621a6df71da886514a
4,321,28,73,2,2,1,857,ef1f80fc1e2fff621a6df71da886514a
4,322,46,55,2,2,1,1106,ef1f80fc1e2fff621a6df71da886514a
4,323,73,10,3,3,1,1034,ef1f80fc1e2fff621a6df71da886514a
4,324,19,37,1,1,1,949,ef1f80fc1e2fff621a6df71da886514a
4,325,10,73,2,2,1,1585,ef1f80fc1e2fff621a6df71da886514a
4,326,73,64,4,4,1,1547,ef1f80fc1e2fff621a6df71da886514a
4,327,46,19,1,3,0,1686,ef1f80fc1e2fff621a6df71da886514a
4,328,82,91,4,4,1,1085,ef1f80fc1e2fff621a6df71da886514a
4,329,91,55,4,4,1,1577,ef1f80fc1e2fff621a6df71da886514a
4,330,10,46,1,1,1,1081,ef1f80fc1e2fff621a6df71da886514a
4,331,28,82,2,2,1,1461,ef1f80fc1e2fff621a6df71da886514a
4,332,91,82,4,4,1,1081,ef1f80fc1e2fff621a6df71da886514a
4,333,73,19,3,3,1,1271,ef1f80fc1e2fff621a6df71da886514a
4,334,10,28,1,1,1,1240,ef1f80fc1e2fff621a6df71da886514a
4,335,55,73,4,4,1,910,ef1f80fc1e2fff621a6df71da886514a
4,336,64,46,3,3,1,1358,ef1f80fc1e2fff621a6df71da886514a
4,337,64,19,3,3,1,1267,ef1f80fc1e2fff621a6df71da886514a
4,338,64,91,4,4,1,814,ef1f80fc1e2fff621a6df71da886514a
4,339,37,37,1,1,1,1667,ef1f80fc1e2fff621a6df71da886514a
4,340,64,55,4,3,0,1184,ef1f80fc1e2fff621a6df71da886514a
4,341,37,82,2,2,1,1422,ef1f80fc1e2fff621a6df71da886514a
4,342,37,91,2,2,1,1003,ef1f80fc1e2fff621a6df71da886514a
4,343,64,10,3,3,1,1116,ef1f80fc1e2fff621a6df71da886514a
4,344,73,37,3,3,1,1063,ef1f80fc1e2fff621a6df71da886514a
4,345,10,55,2,1,0,1199,ef1f80fc1e2fff621a6df71da886514a
4,346,91,73,4,4,1,976,ef1f80fc1e2fff621a6df71da886514a
4,347,82,10,3,3,1,2310,ef1f80fc1e2fff621a6df71da886514a
4,348,91,64,4,4,1,977,ef1f80fc1e2fff621a6df71da886514a
4,349,82,73,4,4,1,723,ef1f80fc1e2fff621a6df71da886514a
4,350,91,37,3,3,1,1019,ef1f80fc1e2fff621a6df71da886514a
4,351,10,10,1,1,1,863,ef1f80fc1e2fff621a6df71da886514a
4,352,10,91,2,2,1,1449,ef1f80fc1e2fff621a6df71da886514a
4,353,73,55,4,3,0,1338,ef1f80fc1e2fff621a6df71da886514a
4,354,64,37,3,3,1,879,ef1f80fc1e2fff621a6df71da886514a
4,355,46,37,1,3,0,1027,ef1f80fc1e2fff621a6df71da886514a
4,356,46,28,1,1,1,751,ef1f80fc1e2fff621a6df71da886514a
4,357,10,19,1,1,1,669,ef1f80fc1e2fff621a6df71da886514a
4,358,55,46,3,3,1,1689,ef1f80fc1e2fff621a6df71da886514a
4,359,82,82,4,4,1,949,ef1f80fc1e2fff621a6df71da886514a
4,360,37,46,1,2,0,1065,ef1f80fc1e2fff621a6df71da886514a
4,361,19,28,1,1,1,661,ef1f80fc1e2fff621a6df71da886514a
4,362,55,91,4,4,1,1565,ef1f80fc1e2fff621a6df71da886514a
4,363,91,91,4,4,1,708,ef1f80fc1e2fff621a6df71da886514a
4,364,82,37,3,3,1,896,ef1f80fc1e2fff621a6df71da886514a
4,365,82,46,3,3,1,1444,ef1f80fc1e2fff621a6df71da886514a
4,366,73,46,3,3,1,894,ef1f80fc1e2fff621a6df71da886514a
4,367,91,10,3,3,1,880,ef1f80fc1e2fff621a6df71da886514a
4,368,46,64,2,4,0,1518,ef1f80fc1e2fff621a6df71da886514a
4,369,28,37,1,1,1,1063,ef1f80fc1e2fff621a6df71da886514a
4,370,55,64,4,3,0,1346,ef1f80fc1e2fff621a6df71da886514a
4,371,82,28,3,3,1,821,ef1f80fc1e2fff621a6df71da886514a
4,372,37,19,1,1,1,788,ef1f80fc1e2fff621a6df71da886514a
4,373,55,55,4,3,0,1498,ef1f80fc1e2fff621a6df71da886514a
4,374,19,91,2,2,1,1853,ef1f80fc1e2fff621a6df71da886514a
4,375,91,28,3,3,1,1048,ef1f80fc1e2fff621a6df71da886514a
4,376,55,28,3,3,1,1727,ef1f80fc1e2fff621a6df71da886514a
4,377,19,10,1,1,1,919,ef1f80fc1e2fff621a6df71da886514a
4,378,19,19,1,1,1,1086,ef1f80fc1e2fff621a6df71da886514a
4,379,64,28,3,3,1,1266,ef1f80fc1e2fff621a6df71da886514a
4,380,37,28,1,1,1,1162,ef1f80fc1e2fff621a6df71da886514a
4,381,91,46,3,3,1,1315,ef1f80fc1e2fff621a6df71da886514a
4,382,28,91,2,2,1,930,ef1f80fc1e2fff621a6df71da886514a
4,383,64,82,4,4,1,1110,ef1f80fc1e2fff621a6df71da886514a
4,384,19,46,1,2,0,1853,ef1f80fc1e2fff621a6df71da886514a
4,385,10,64,2,2,1,1061,ef1f80fc1e2fff621a6df71da886514a
4,386,19,82,2,2,1,1694,ef1f80fc1e2fff621a6df71da886514a
4,387,19,64,2,2,1,884,ef1f80fc1e2fff621a6df71da886514a
4,388,46,73,2,2,1,882,ef1f80fc1e2fff621a6df71da886514a
4,389,55,82,4,4,1,1102,ef1f80fc1e2fff621a6df71da886514a
4,390,73,73,4,4,1,788,ef1f80fc1e2fff621a6df71da886514a
4,391,37,55,2,2,1,975,ef1f80fc1e2fff621a6df71da886514a
4,392,19,55,2,2,1,824,ef1f80fc1e2fff621a6df71da886514a
4,393,64,64,4,4,1,885,ef1f80fc1e2fff621a6df71da886514a
4,394,37,64,2,2,1,1119,ef1f80fc1e2fff621a6df71da886514a
4,395,10,37,1,1,1,1145,ef1f80fc1e2fff621a6df71da886514a
4,396,28,10,1,1,1,739,ef1f80fc1e2fff621a6df71da886514a
4,397,73,91,4,4,1,919,ef1f80fc1e2fff621a6df71da886514a
4,398,46,46,1,3,0,1336,ef1f80fc1e2fff621a6df71da886514a
4,399,55,10,3,3,1,965,ef1f80fc1e2fff621a6df71da886514a
1,0,64,37,1,4,9999,4392,2f49261da241afa0d9c848b46d3f4d22
1,1,37,10,1,4,9999,1037,2f49261da241afa0d9c848b46d3f4d22
1,2,10,64,1,4,9999,1280,2f49261da241afa0d9c848b46d3f4d22
1,3,28,19,1,1,9999,1675,2f49261da241afa0d9c848b46d3f4d22
1,4,82,19,1,1,9999,1432,2f49261da241afa0d9c848b46d3f4d22
1,5,37,91,1,1,9999,1102,2f49261da241afa0d9c848b46d3f4d22
1,6,55,46,1,1,9999,1255,2f49261da241afa0d9c848b46d3f4d22
1,7,28,37,1,4,9999,1162,2f49261da241afa0d9c848b46d3f4d22
1,8,28,46,1,4,9999,1217,2f49261da241afa0d9c848b46d3f4d22
1,9,82,73,1,1,9999,1027,2f49261da241afa0d9c848b46d3f4d22
1,10,10,73,1,1,9999,690,2f49261da241afa0d9c848b46d3f4d22
1,11,28,19,1,1,9999,1075,2f49261da241afa0d9c848b46d3f4d22
1,12,82,91,1,1,9999,1178,2f49261da241afa0d9c848b46d3f4d22
1,13,10,55,1,1,9999,1041,2f49261da241afa0d9c848b46d3f4d22
1,14,91,55,1,1,9999,1215,2f49261da241afa0d9c848b46d3f4d22
1,15,55,64,1,4,9999,818,2f49261da241afa0d9c848b46d3f4d22
1,16,73,19,1,4,9999,965,2f49261da241afa0d9c848b46d3f4d22
1,17,19,73,1,1,9999,785,2f49261da241afa0d9c848b46d3f4d22
1,18,46,37,1,1,9999,1302,2f49261da241afa0d9c848b46d3f4d22
1,19,91,91,1,1,9999,935,2f49261da241afa0d9c848b46d3f4d22
1,20,55,37,1,1,9999,952,2f49261da241afa0d9c848b46d3f4d22
1,21,10,28,1,1,9999,913,2f49261da241afa0d9c848b46d3f4d22
1,22,28,10,1,1,9999,919,2f49261da241afa0d9c848b46d3f4d22
1,23,91,19,1,4,9999,1484,2f49261da241afa0d9c848b46d3f4d22
1,24,10,82,1,1,9999,737,2f49261da241afa0d9c848b46d3f4d22
1,25,73,55,1,1,9999,993,2f49261da241afa0d9c848b46d3f4d22
1,26,55,10,1,1,9999,939,2f49261da241afa0d9c848b46d3f4d22
1,27,19,91,1,1,9999,852,2f49261da241afa0d9c848b46d3f4d22
1,28,10,73,1,4,9999,793,2f49261da241afa0d9c848b46d3f4d22
1,29,46,46,1,1,9999,1087,2f49261da241afa0d9c848b46d3f4d22
1,30,46,37,1,4,9999,1000,2f49261da241afa0d9c848b46d3f4d22
1,31,28,73,1,1,9999,973,2f49261da241afa0d9c848b46d3f4d22
1,32,55,91,1,1,9999,1162,2f49261da241afa0d9c848b46d3f4d22
1,33,46,73,1,1,9999,1349,2f49261da241afa0d9c848b46d3f4d22
1,34,55,73,1,1,9999,846,2f49261da241afa0d9c848b46d3f4d22
1,35,28,91,1,4,9999,958,2f49261da241afa0d9c848b46d3f4d22
1,36,64,28,1,1,9999,1373,2f49261da241afa0d9c848b46d3f4d22
1,37,10,46,1,1,9999,1565,2f49261da241afa0d9c848b46d3f4d22
1,38,91,10,1,1,9999,2018,2f49261da241afa0d9c848b46d3f4d22
1,39,10,10,1,1,9999,1422,2f49261da241afa0d9c848b46d3f4d22
1,40,55,82,1,4,9999,962,2f49261da241afa0d9c848b46d3f4d22
1,41,82,10,1,1,9999,1348,2f49261da241afa0d9c848b46d3f4d22
1,42,10,10,1,1,9999,927,2f49261da241afa0d9c848b46d3f4d22
1,43,28,91,1,1,9999,724,2f49261da241afa0d9c848b46d3f4d22
1,44,82,28,1,1,9999,677,2f49261da241afa0d9c848b46d3f4d22
1,45,46,10,1,4,9999,1054,2f49261da241afa0d9c848b46d3f4d22
1,46,46,28,1,4,9999,1289,2f49261da241afa0d9c848b46d3f4d22
1,47,19,10,1,1,9999,556,2f49261da241afa0d9c848b46d3f4d22
1,48,46,55,1,1,9999,1477,2f49261da241afa0d9c848b46d3f4d22
1,49,82,82,1,1,9999,973,2f49261da241afa0d9c848b46d3f4d22
1,50,46,19,1,1,9999,939,2f49261da241afa0d9c848b46d3f4d22
1,51,10,46,1,1,9999,656,2f49261da241afa0d9c848b46d3f4d22
1,52,19,37,1,4,9999,1096,2f49261da241afa0d9c848b46d3f4d22
1,53,55,73,1,1,9999,557,2f49261da241afa0d9c848b46d3f4d22
1,54,55,64,1,4,9999,765,2f49261da241afa0d9c848b46d3f4d22
1,55,91,28,1,1,9999,926,2f49261da241afa0d9c848b46d3f4d22
1,56,28,64,1,1,9999,846,2f49261da241afa0d9c848b46d3f4d22
1,57,64,82,1,1,9999,643,2f49261da241afa0d9c848b46d3f4d22
1,58,91,37,1,1,9999,609,2f49261da241afa0d9c848b46d3f4d22
1,59,82,91,1,4,9999,1193,2f49261da241afa0d9c848b46d3f4d22
1,60,73,37,1,4,9999,802,2f49261da241afa0d9c848b46d3f4d22
1,61,28,28,1,1,9999,569,2f49261da241afa0d9c848b46d3f4d22
1,62,37,19,1,4,9999,1108,2f49261da241afa0d9c848b46d3f4d22
1,63,37,37,1,4,9999,767,2f49261da241afa0d9c848b46d3f4d22
1,64,10,91,1,1,9999,580,2f49261da241afa0d9c848b46d3f4d22
1,65,46,46,1,1,9999,629,2f49261da241afa0d9c848b46d3f4d22
1,66,46,19,1,1,9999,1148,2f49261da241afa0d9c848b46d3f4d22
1,67,28,91,1,1,9999,791,2f49261da241afa0d9c848b46d3f4d22
1,68,19,28,1,1,9999,1150,2f49261da241afa0d9c848b46d3f4d22
1,69,46,19,1,1,9999,984,2f49261da241afa0d9c848b46d3f4d22
1,70,64,28,1,1,9999,696,2f49261da241afa0d9c848b46d3f4d22
1,71,82,64,1,1,9999,788,2f49261da241afa0d9c848b46d3f4d22
1,72,28,73,1,1,9999,803,2f49261da241afa0d9c848b46d3f4d22
1,73,37,19,1,4,9999,665,2f49261da241afa0d9c848b46d3f4d22
1,74,37,37,1,4,9999,718,2f49261da241afa0d9c848b46d3f4d22
1,75,55,19,1,4,9999,799,2f49261da241afa0d9c848b46d3f4d22
1,76,19,46,1,1,9999,559,2f49261da241afa0d9c848b46d3f4d22
1,77,82,91,1,1,9999,638,2f49261da241afa0d9c848b46d3f4d22
1,78,82,10,1,1,9999,1041,2f49261da241afa0d9c848b46d3f4d22
1,79,91,10,1,4,9999,745,2f49261da241afa0d9c848b46d3f4d22
1,80,91,73,1,4,9999,1236,2f49261da241afa0d9c848b46d3f4d22
1,81,37,55,1,1,9999,776,2f49261da241afa0d9c848b46d3f4d22
1,82,37,55,1,1,9999,640,2f49261da241afa0d9c848b46d3f4d22
1,83,28,37,1,4,9999,1267,2f49261da241afa0d9c848b46d3f4d22
1,84,82,28,1,1,9999,670,2f49261da241afa0d9c848b46d3f4d22
1,85,28,64,1,1,9999,1067,2f49261da241afa0d9c848b46d3f4d22
1,86,64,73,1,1,9999,1156,2f49261da241afa0d9c848b46d3f4d22
1,87,46,10,1,4,9999,1208,2f49261da241afa0d9c848b46d3f4d22
1,88,19,82,1,1,9999,665,2f49261da241afa0d9c848b46d3f4d22
1,89,46,46,1,1,9999,898,2f49261da241afa0d9c848b46d3f4d22
1,90,64,10,1,1,9999,778,2f49261da241afa0d9c848b46d3f4d22
1,91,10,37,1,1,9999,1196,2f49261da241afa0d9c848b46d3f4d22
1,92,91,82,1,1,9999,806,2f49261da241afa0d9c848b46d3f4d22
1,93,37,91,1,1,9999,1328,2f49261da241afa0d9c848b46d3f4d22
1,94,46,37,1,1,9999,578,2f49261da241afa0d9c848b46d3f4d22
1,95,82,55,1,1,9999,785,2f49261da241afa0d9c848b46d3f4d22
1,96,55,37,1,4,9999,829,2f49261da241afa0d9c848b46d3f4d22
1,97,10,19,1,1,9999,625,2f49261da241afa0d9c848b46d3f4d22
1,98,64,91,1,1,9999,1048,2f49261da241afa0d9c848b46d3f4d22
1,99,19,82,1,1,9999,1107,2f49261da241afa0d9c848b46d3f4d22
1,100,64,37,1,4,9999,453,2f49261da241afa0d9c848b46d3f4d22
1,101,91,91,1,1,9999,1274,2f49261da241afa0d9c848b46d3f4d22
1,102,64,19,1,1,9999,1244,2f49261da241afa0d9c848b46d3f4d22
1,103,64,55,1,1,9999,839,2f49261da241afa0d9c848b46d3f4d22
1,104,10,82,1,1,9999,1908,2f49261da241afa0d9c848b46d3f4d22
1,105,19,91,1,4,9999,1007,2f49261da241afa0d9c848b46d3f4d22
1,106,19,19,1,4,9999,838,2f49261da241afa0d9c848b46d3f4d22
1,107,28,64,1,4,9999,1054,2f49261da241afa0d9c848b46d3f4d22
1,108,19,64,1,4,9999,899,2f49261da241afa0d9c848b46d3f4d22
1,109,37,10,1,1,9999,900,2f49261da241afa0d9c848b46d3f4d22
1,110,55,46,1,4,9999,1075,2f49261da241afa0d9c848b46d3f4d22
1,111,91,73,1,1,9999,805,2f49261da241afa0d9c848b46d3f4d22
1,112,55,91,1,4,9999,1021,2f49261da241afa0d9c848b46d3f4d22
1,113,19,82,1,1,9999,1100,2f49261da241afa0d9c848b46d3f4d22
1,114,28,91,1,4,9999,710,2f49261da241afa0d9c848b46d3f4d22
1,115,19,73,1,4,9999,867,2f49261da241afa0d9c848b46d3f4d22
1,116,19,55,1,4,9999,710,2f49261da241afa0d9c848b46d3f4d22
1,117,10,82,1,4,9999,604,2f49261da241afa0d9c848b46d3f4d22
1,118,19,73,1,4,9999,811,2f49261da241afa0d9c848b46d3f4d22
1,119,46,55,1,4,9999,953,2f49261da241afa0d9c848b46d3f4d22
1,120,19,55,1,4,9999,670,2f49261da241afa0d9c848b46d3f4d22
1,121,64,64,1,4,9999,638,2f49261da241afa0d9c848b46d3f4d22
1,122,55,28,1,4,9999,1099,2f49261da241afa0d9c848b46d3f4d22
1,123,73,82,1,4,9999,544,2f49261da241afa0d9c848b46d3f4d22
1,124,64,10,1,1,9999,872,2f49261da241afa0d9c848b46d3f4d22
1,125,55,37,1,4,9999,1217,2f49261da241afa0d9c848b46d3f4d22
1,126,73,64,1,4,9999,1107,2f49261da241afa0d9c848b46d3f4d22
1,127,46,64,1,4,9999,832,2f49261da241afa0d9c848b46d3f4d22
1,128,46,91,1,1,9999,892,2f49261da241afa0d9c848b46d3f4d22
1,129,82,91,1,4,9999,1350,2f49261da241afa0d9c848b46d3f4d22
1,130,73,55,1,4,9999,949,2f49261da241afa0d9c848b46d3f4d22
1,131,64,19,1,1,9999,708,2f49261da241afa0d9c848b46d3f4d22
1,132,37,73,1,1,9999,1472,2f49261da241afa0d9c848b46d3f4d22
1,133,19,28,1,1,9999,980,2f49261da241afa0d9c848b46d3f4d22
1,134,28,64,1,4,9999,778,2f49261da241afa0d9c848b46d3f4d22
1,135,64,46,1,1,9999,966,2f49261da241afa0d9c848b46d3f4d22
1,136,46,82,1,1,9999,1195,2f49261da241afa0d9c848b46d3f4d22
1,137,28,82,1,4,9999,1324,2f49261da241afa0d9c848b46d3f4d22
1,138,37,28,1,1,9999,1040,2f49261da241afa0d9c848b46d3f4d22
1,139,64,64,1,1,9999,1001,2f49261da241afa0d9c848b46d3f4d22
1,140,73,91,1,1,9999,1081,2f49261da241afa0d9c848b46d3f4d22
1,141,37,91,1,4,9999,1001,2f49261da241afa0d9c848b46d3f4d22
1,142,55,19,1,1,9999,772,2f49261da241afa0d9c848b46d3f4d22
1,143,37,28,1,1,9999,831,2f49261da241afa0d9c848b46d3f4d22
1,144,46,28,1,1,9999,920,2f49261da241afa0d9c848b46d3f4d22
1,145,82,37,1,1,9999,976,2f49261da241afa0d9c848b46d3f4d22
1,146,19,28,1,1,9999,815,2f49261da241afa0d9c848b46d3f4d22
1,147,37,82,1,4,9999,919,2f49261da241afa0d9c848b46d3f4d22
1,148,37,82,1,4,9999,685,2f49261da241afa0d9c848b46d3f4d22
1,149,19,64,1,1,9999,671,2f49261da241afa0d9c848b46d3f4d22
1,150,91,28,1,1,9999,1054,2f49261da241afa0d9c848b46d3f4d22
1,151,28,55,1,1,9999,665,2f49261da241afa0d9c848b46d3f4d22
1,152,91,10,1,1,9999,1014,2f49261da241afa0d9c848b46d3f4d22
1,153,46,10,1,1,9999,635,2f49261da241afa0d9c848b46d3f4d22
1,154,73,82,1,1,9999,1160,2f49261da241afa0d9c848b46d3f4d22
1,155,91,46,1,1,9999,942,2f49261da241afa0d9c848b46d3f4d22
1,156,91,64,1,4,9999,683,2f49261da241afa0d9c848b46d3f4d22
1,157,28,28,1,1,9999,624,2f49261da241afa0d9c848b46d3f4d22
1,158,10,10,1,1,9999,738,2f49261da241afa0d9c848b46d3f4d22
1,159,64,73,1,1,9999,1210,2f49261da241afa0d9c848b46d3f4d22
1,160,55,28,1,4,9999,677,2f49261da241afa0d9c848b46d3f4d22
1,161,64,28,1,4,9999,659,2f49261da241afa0d9c848b46d3f4d22
1,162,10,55,1,1,9999,617,2f49261da241afa0d9c848b46d3f4d22
1,163,46,91,1,4,9999,570,2f49261da241afa0d9c848b46d3f4d22
1,164,10,82,1,4,9999,1153,2f49261da241afa0d9c848b46d3f4d22
1,165,10,73,1,4,9999,656,2f49261da241afa0d9c848b46d3f4d22
1,166,64,73,1,1,9999,710,2f49261da241afa0d9c848b46d3f4d22
1,167,28,55,1,4,9999,764,2f49261da241afa0d9c848b46d3f4d22
1,168,28,10,1,1,9999,887,2f49261da241afa0d9c848b46d3f4d22
1,169,64,46,1,1,9999,1046,2f49261da241afa0d9c848b46d3f4d22
1,170,10,37,1,1,9999,733,2f49261da241afa0d9c848b46d3f4d22
1,171,64,73,1,1,9999,683,2f49261da241afa0d9c848b46d3f4d22
1,172,82,55,1,4,9999,1034,2f49261da241afa0d9c848b46d3f4d22
1,173,10,91,1,1,9999,576,2f49261da241afa0d9c848b46d3f4d22
1,174,73,28,1,1,9999,725,2f49261da241afa0d9c848b46d3f4d22
1,175,91,91,1,4,9999,947,2f49261da241afa0d9c848b46d3f4d22
1,176,91,19,1,4,9999,1425,2f49261da241afa0d9c848b46d3f4d22
1,177,55,64,1,4,9999,1324,2f49261da241afa0d9c848b46d3f4d22
1,178,28,28,1,1,9999,704,2f49261da241afa0d9c848b46d3f4d22
1,179,37,10,1,1,9999,1242,2f49261da241afa0d9c848b46d3f4d22
1,180,73,73,1,1,9999,1440,2f49261da241afa0d9c848b46d3f4d22
1,181,10,10,1,1,9999,534,2f49261da241afa0d9c848b46d3f4d22
1,182,19,37,1,4,9999,799,2f49261da241afa0d9c848b46d3f4d22
1,183,19,82,1,4,9999,1188,2f49261da241afa0d9c848b46d3f4d22
1,184,46,37,1,1,9999,838,2f49261da241afa0d9c848b46d3f4d22
1,185,55,82,1,1,9999,1028,2f49261da241afa0d9c848b46d3f4d22
1,186,37,55,1,4,9999,744,2f49261da241afa0d9c848b46d3f4d22
1,187,28,82,1,4,9999,590,2f49261da241afa0d9c848b46d3f4d22
1,188,28,73,1,4,9999,656,2f49261da241afa0d9c848b46d3f4d22
1,189,10,91,1,1,9999,946,2f49261da241afa0d9c848b46d3f4d22
1,190,10,28,1,1,9999,865,2f49261da241afa0d9c848b46d3f4d22
1,191,64,10,1,1,9999,1168,2f49261da241afa0d9c848b46d3f4d22
1,192,46,82,1,1,9999,731,2f49261da241afa0d9c848b46d3f4d22
1,193,19,19,1,1,9999,1095,2f49261da241afa0d9c848b46d3f4d22
1,194,37,10,1,4,9999,807,2f49261da241afa0d9c848b46d3f4d22
1,195,82,82,1,1,9999,569,2f49261da241afa0d9c848b46d3f4d22
1,196,37,37,1,1,9999,996,2f49261da241afa0d9c848b46d3f4d22
1,197,37,73,1,4,9999,1296,2f49261da241afa0d9c848b46d3f4d22
1,198,91,37,1,1,9999,893,2f49261da241afa0d9c848b46d3f4d22
1,199,73,64,1,4,9999,958,2f49261da241afa0d9c848b46d3f4d22
1,200,91,19,1,4,9999,387,2f49261da241afa0d9c848b46d3f4d22
1,201,10,64,1,1,9999,624,2f49261da241afa0d9c848b46d3f4d22
1,202,37,37,1,4,9999,1093,2f49261da241afa0d9c848b46d3f4d22
1,203,82,19,1,1,9999,645,2f49261da241afa0d9c848b46d3f4d22
1,204,64,19,1,1,9999,1498,2f49261da241afa0d9c848b46d3f4d22
1,205,82,37,1,4,9999,564,2f49261da241afa0d9c848b46d3f4d22
1,206,82,10,1,4,9999,554,2f49261da241afa0d9c848b46d3f4d22
1,207,73,28,1,4,9999,570,2f49261da241afa0d9c848b46d3f4d22
1,208,28,82,1,1,9999,1000,2f49261da241afa0d9c848b46d3f4d22
1,209,46,82,1,4,9999,664,2f49261da241afa0d9c848b46d3f4d22
1,210,82,64,1,1,9999,1014,2f49261da241afa0d9c848b46d3f4d22
1,211,55,73,1,4,9999,617,2f49261da241afa0d9c848b46d3f4d22
1,212,19,55,1,1,9999,658,2f49261da241afa0d9c848b46d3f4d22
1,213,73,73,1,1,9999,690,2f49261da241afa0d9c848b46d3f4d22
1,214,28,28,1,1,9999,746,2f49261da241afa0d9c848b46d3f4d22
1,215,73,82,1,4,9999,748,2f49261da241afa0d9c848b46d3f4d22
1,216,55,55,1,4,9999,696,2f49261da241afa0d9c848b46d3f4d22
1,217,82,64,1,1,9999,799,2f49261da241afa0d9c848b46d3f4d22
1,218,64,46,1,4,9999,522,2f49261da241afa0d9c848b46d3f4d22
1,219,64,37,1,4,9999,563,2f49261da241afa0d9c848b46d3f4d22
1,220,82,28,1,4,9999,810,2f49261da241afa0d9c848b46d3f4d22
1,221,73,28,1,4,9999,610,2f49261da241afa0d9c848b46d3f4d22
1,222,91,82,1,1,9999,1327,2f49261da241afa0d9c848b46d3f4d22
1,223,37,64,1,1,9999,1090,2f49261da241afa0d9c848b46d3f4d22
1,224,46,28,1,1,9999,1532,2f49261da241afa0d9c848b46d3f4d22
1,225,55,82,1,1,9999,746,2f49261da241afa0d9c848b46d3f4d22
1,226,64,10,1,1,9999,1226,2f49261da241afa0d9c848b46d3f4d22
1,227,10,64,1,1,9999,852,2f49261da241afa0d9c848b46d3f4d22
1,228,28,37,1,4,9999,1100,2f49261da241afa0d9c848b46d3f4d22
1,229,10,73,1,1,9999,1005,2f49261da241afa0d9c848b46d3f4d22
1,230,37,73,1,1,9999,1202,2f49261da241afa0d9c848b46d3f4d22
1,231,19,46,1,1,9999,994,2f49261da241afa0d9c848b46d3f4d22
1,232,46,55,1,1,9999,873,2f49261da241afa0d9c848b46d3f4d22
1,233,19,37,1,1,9999,1592,2f49261da241afa0d9c848b46d3f4d22
1,234,73,19,1,1,9999,638,2f49261da241afa0d9c848b46d3f4d22
1,235,73,10,1,4,9999,730,2f49261da241afa0d9c848b46d3f4d22
1,236,46,91,1,1,9999,718,2f49261da241afa0d9c848b46d3f4d22
1,237,73,91,1,1,9999,779,2f49261da241afa0d9c848b46d3f4d22
1,238,10,55,1,1,9999,590,2f49261da241afa0d9c848b46d3f4d22
1,239,82,55,1,1,9999,705,2f49261da241afa0d9c848b46d3f4d22
1,240,19,46,1,1,9999,523,2f49261da241afa0d9c848b46d3f4d22
1,241,28,19,1,4,9999,778,2f49261da241afa0d9c848b46d3f4d22
1,242,46,55,1,1,9999,677,2f49261da241afa0d9c848b46d3f4d22
1,243,37,91,1,1,9999,672,2f49261da241afa0d9c848b46d3f4d22
1,244,55,37,1,1,9999,832,2f49261da241afa0d9c848b46d3f4d22
1,245,10,91,1,1,9999,671,2f49261da241afa0d9c848b46d3f4d22
1,246,82,37,1,1,9999,693,2f49261da241afa0d9c848b46d3f4d22
1,247,55,46,1,4,9999,823,2f49261da241afa0d9c848b46d3f4d22
1,248,46,64,1,4,9999,718,2f49261da241afa0d9c848b46d3f4d22
1,249,37,82,1,4,9999,705,2f49261da241afa0d9c848b46d3f4d22
1,250,46,91,1,4,9999,671,2f49261da241afa0d9c848b46d3f4d22
1,251,55,91,1,4,9999,583,2f49261da241afa0d9c848b46d3f4d22
1,252,91,37,1,1,9999,778,2f49261da241afa0d9c848b46d3f4d22
1,253,73,37,1,4,9999,1041,2f49261da241afa0d9c848b46d3f4d22
1,254,73,64,1,4,9999,542,2f49261da241afa0d9c848b46d3f4d22
1,255,55,64,1,4,9999,617,2f49261da241afa0d9c848b46d3f4d22
1,256,64,19,1,1,9999,1177,2f49261da241afa0d9c848b46d3f4d22
1,257,46,28,1,4,9999,711,2f49261da241afa0d9c848b46d3f4d22
1,258,82,64,1,4,9999,623,2f49261da241afa0d9c848b46d3f4d22
1,259,82,10,1,1,9999,912,2f49261da241afa0d9c848b46d3f4d22
1,260,73,73,1,1,9999,1053,2f49261da241afa0d9c848b46d3f4d22
1,261,46,10,1,1,9999,1223,2f49261da241afa0d9c848b46d3f4d22
1,262,55,10,1,4,9999,678,2f49261da241afa0d9c848b46d3f4d22
1,263,73,91,1,1,9999,826,2f49261da241afa0d9c848b46d3f4d22
1,264,73,37,1,4,9999,799,2f49261da241afa0d9c848b46d3f4d22
1,265,64,82,1,4,9999,790,2f49261da241afa0d9c848b46d3f4d22
1,266,91,55,1,4,9999,1155,2f49261da241afa0d9c848b46d3f4d22
1,267,64,64,1,4,9999,609,2f49261da241afa0d9c848b46d3f4d22
1,268,73,19,1,1,9999,833,2f49261da241afa0d9c848b46d3f4d22
1,269,28,55,1,1,9999,697,2f49261da241afa0d9c848b46d3f4d22
1,270,28,55,1,4,9999,906,2f49261da241afa0d9c848b46d3f4d22
1,271,73,64,1,1,9999,616,2f49261da241afa0d9c848b46d3f4d22
1,272,64,55,1,4,9999,643,2f49261da241afa0d9c848b46d3f4d22
1,273,91,19,1,1,9999,818,2f49261da241afa0d9c848b46d3f4d22
1,274,19,91,1,1,9999,804,2f49261da241afa0d9c848b46d3f4d22
1,275,91,46,1,1,9999,583,2f49261da241afa0d9c848b46d3f4d22
1,276,55,28,1,1,9999,1055,2f49261da241afa0d9c848b46d3f4d22
1,277,73,10,1,1,9999,1010,2f49261da241afa0d9c848b46d3f4d22
1,278,37,46,1,1,9999,641,2f49261da241afa0d9c848b46d3f4d22
1,279,91,73,1,1,9999,985,2f49261da241afa0d9c848b46d3f4d22
1,280,91,55,1,4,9999,868,2f49261da241afa0d9c848b46d3f4d22
1,281,28,73,1,1,9999,596,2f49261da241afa0d9c848b46d3f4d22
1,282,10,19,1,1,9999,952,2f49261da241afa0d9c848b46d3f4d22
1,283,19,73,1,1,9999,1129,2f49261da241afa0d9c848b46d3f4d22
1,284,10,19,1,1,9999,1222,2f49261da241afa0d9c848b46d3f4d22
1,285,19,10,1,4,9999,846,2f49261da241afa0d9c848b46d3f4d22
1,286,46,73,1,1,9999,900,2f49261da241afa0d9c848b46d3f4d22
1,287,46,19,1,1,9999,882,2f49261da241afa0d9c848b46d3f4d22
1,288,82,73,1,1,9999,871,2f49261da241afa0d9c848b46d3f4d22
1,289,19,46,1,1,9999,931,2f49261da241afa0d9c848b46d3f4d22
1,290,46,73,1,1,9999,1276,2f49261da241afa0d9c848b46d3f4d22
1,291,19,19,1,1,9999,840,2f49261da241afa0d9c848b46d3f4d22
1,292,91,91,1,1,9999,839,2f49261da241afa0d9c848b46d3f4d22
1,293,64,55,1,4,9999,988,2f49261da241afa0d9c848b46d3f4d22
1,294,28,82,1,1,9999,710,2f49261da241afa0d9c848b46d3f4d22
1,295,73,91,1,1,9999,1041,2f49261da241afa0d9c848b46d3f4d22
1,296,64,82,1,4,9999,678,2f49261da241afa0d9c848b46d3f4d22
1,297,91,37,1,1,9999,934,2f49261da241afa0d9c848b46d3f4d22
1,298,82,55,1,4,9999,1073,2f49261da241afa0d9c848b46d3f4d22
1,299,73,82,1,4,9999,745,2f49261da241afa0d9c848b46d3f4d22
1,300,19,10,1,4,9999,392,2f49261da241afa0d9c848b46d3f4d22
1,301,37,64,1,1,9999,931,2f49261da241afa0d9c848b46d3f4d22
1,302,64,55,1,1,9999,2117,2f49261da241afa0d9c848b46d3f4d22
1,303,55,55,1,4,9999,848,2f49261da241afa0d9c848b46d3f4d22
1,304,64,64,1,4,9999,695,2f49261da241afa0d9c848b46d3f4d22
1,305,73,46,1,4,9999,721,2f49261da241afa0d9c848b46d3f4d22
1,306,55,28,1,1,9999,984,2f49261da241afa0d9c848b46d3f4d22
1,307,37,28,1,4,9999,1221,2f49261da241afa0d9c848b46d3f4d22
1,308,10,37,1,4,9999,1209,2f49261da241afa0d9c848b46d3f4d22
1,309,73,73,1,1,9999,630,2f49261da241afa0d9c848b46d3f4d22
1,310,73,46,1,4,9999,551,2f49261da241afa0d9c848b46d3f4d22
1,311,10,19,1,1,9999,1112,2f49261da241afa0d9c848b46d3f4d22
1,312,37,55,1,1,9999,677,2f49261da241afa0d9c848b46d3f4d22
1,313,10,46,1,1,9999,595,2f49261da241afa0d9c848b46d3f4d22
1,314,82,82,1,1,9999,792,2f49261da241afa0d9c848b46d3f4d22
1,315,19,37,1,1,9999,583,2f49261da241afa0d9c848b46d3f4d22
1,316,37,46,1,1,9999,858,2f49261da241afa0d9c848b46d3f4d22
1,317,55,91,1,1,9999,1317,2f49261da241afa0d9c848b46d3f4d22
1,318,28,37,1,1,9999,956,2f49261da241afa0d9c848b46d3f4d22
1,319,82,46,1,1,9999,1057,2f49261da241afa0d9c848b46d3f4d22
1,320,46,73,1,4,9999,872,2f49261da241afa0d9c848b46d3f4d22
1,321,10,28,1,1,9999,798,2f49261da241afa0d9c848b46d3f4d22
1,322,19,19,1,4,9999,906,2f49261da241afa0d9c848b46d3f4d22
1,323,91,82,1,1,9999,683,2f49261da241afa0d9c848b46d3f4d22
1,324,55,46,1,1,9999,1106,2f49261da241afa0d9c848b46d3f4d22
1,325,55,55,1,4,9999,611,2f49261da241afa0d9c848b46d3f4d22
1,326,73,19,1,1,9999,840,2f49261da241afa0d9c848b46d3f4d22
1,327,91,64,1,1,9999,912,2f49261da241afa0d9c848b46d3f4d22
1,328,82,19,1,1,9999,1108,2f49261da241afa0d9c848b46d3f4d22
1,329,64,82,1,4,9999,1141,2f49261da241afa0d9c848b46d3f4d22
1,330,46,64,1,4,9999,825,2f49261da241afa0d9c848b46d3f4d22
1,331,91,46,1,1,9999,764,2f49261da241afa0d9c848b46d3f4d22
1,332,10,55,1,1,9999,545,2f49261da241afa0d9c848b46d3f4d22
1,333,82,46,1,1,9999,920,2f49261da241afa0d9c848b46d3f4d22
1,334,28,19,1,1,9999,683,2f49261da241afa0d9c848b46d3f4d22
1,335,37,46,1,4,9999,772,2f49261da241afa0d9c848b46d3f4d22
1,336,37,82,1,1,9999,791,2f49261da241afa0d9c848b46d3f4d22
1,337,37,46,1,1,9999,631,2f49261da241afa0d9c848b46d3f4d22
1,338,55,82,1,4,9999,1309,2f49261da241afa0d9c848b46d3f4d22
1,339,64,91,1,1,9999,935,2f49261da241afa0d9c848b46d3f4d22
1,340,91,82,1,1,9999,806,2f49261da241afa0d9c848b46d3f4d22
1,341,10,37,1,1,9999,730,2f49261da241afa0d9c848b46d3f4d22
1,342,28,46,1,4,9999,604,2f49261da241afa0d9c848b46d3f4d22
1,343,55,10,1,1,9999,590,2f49261da241afa0d9c848b46d3f4d22
1,344,55,19,1,1,9999,839,2f49261da241afa0d9c848b46d3f4d22
1,345,91,64,1,1,9999,775,2f49261da241afa0d9c848b46d3f4d22
1,346,55,10,1,4,9999,1082,2f49261da241afa0d9c848b46d3f4d22
1,347,91,46,1,1,9999,1034,2f49261da241afa0d9c848b46d3f4d22
1,348,55,55,1,1,9999,723,2f49261da241afa0d9c848b46d3f4d22
1,349,37,64,1,1,9999,1053,2f49261da241afa0d9c848b46d3f4d22
1,350,91,28,1,1,9999,592,2f49261da241afa0d9c848b46d3f4d22
1,351,82,46,1,4,9999,1061,2f49261da241afa0d9c848b46d3f4d22
1,352,82,73,1,4,9999,1143,2f49261da241afa0d9c848b46d3f4d22
1,353,82,37,1,4,9999,731,2f49261da241afa0d9c848b46d3f4d22
1,354,19,64,1,1,9999,657,2f49261da241afa0d9c848b46d3f4d22
1,355,28,10,1,1,9999,1006,2f49261da241afa0d9c848b46d3f4d22
1,356,10,28,1,4,9999,1061,2f49261da241afa0d9c848b46d3f4d22
1,357,37,19,1,4,9999,1740,2f49261da241afa0d9c848b46d3f4d22
1,358,46,82,1,1,9999,818,2f49261da241afa0d9c848b46d3f4d22
1,359,91,55,1,1,9999,926,2f49261da241afa0d9c848b46d3f4d22
1,360,37,64,1,1,9999,616,2f49261da241afa0d9c848b46d3f4d22
1,361,73,46,1,1,9999,1135,2f49261da241afa0d9c848b46d3f4d22
1,362,82,82,1,4,9999,704,2f49261da241afa0d9c848b46d3f4d22
1,363,55,19,1,4,9999,1297,2f49261da241afa0d9c848b46d3f4d22
1,364,19,55,1,1,9999,801,2f49261da241afa0d9c848b46d3f4d22
1,365,91,73,1,1,9999,1167,2f49261da241afa0d9c848b46d3f4d22
1,366,55,73,1,4,9999,987,2f49261da241afa0d9c848b46d3f4d22
1,367,64,37,1,4,9999,899,2f49261da241afa0d9c848b46d3f4d22
1,368,28,46,1,1,9999,711,2f49261da241afa0d9c848b46d3f4d22
1,369,64,46,1,1,9999,1001,2f49261da241afa0d9c848b46d3f4d22
1,370,91,28,1,1,9999,846,2f49261da241afa0d9c848b46d3f4d22
1,371,82,73,1,4,9999,661,2f49261da241afa0d9c848b46d3f4d22
1,372,28,46,1,1,9999,1018,2f49261da241afa0d9c848b46d3f4d22
1,373,73,55,1,1,9999,677,2f49261da241afa0d9c848b46d3f4d22
1,374,64,28,1,4,9999,888,2f49261da241afa0d9c848b46d3f4d22
1,375,37,73,1,1,9999,904,2f49261da241afa0d9c848b46d3f4d22
1,376,64,91,1,1,9999,954,2f49261da241afa0d9c848b46d3f4d22
1,377,19,10,1,1,9999,638,2f49261da241afa0d9c848b46d3f4d22
1,378,37,28,1,1,9999,998,2f49261da241afa0d9c848b46d3f4d22
1,379,82,28,1,1,9999,610,2f49261da241afa0d9c848b46d3f4d22
1,380,64,91,1,1,9999,1000,2f49261da241afa0d9c848b46d3f4d22
1,381,10,64,1,1,9999,1122,2f49261da241afa0d9c848b46d3f4d22
1,382,19,28,1,1,9999,965,2f49261da241afa0d9c848b46d3f4d22
1,383,19,64,1,4,9999,1156,2f49261da241afa0d9c848b46d3f4d22
1,384,73,37,1,1,9999,557,2f49261da241afa0d9c848b46d3f4d22
1,385,19,91,1,1,9999,846,2f49261da241afa0d9c848b46d3f4d22
1,386,82,19,1,1,9999,596,2f49261da241afa0d9c848b46d3f4d22
1,387,46,64,1,1,9999,865,2f49261da241afa0d9c848b46d3f4d22
1,388,73,10,1,1,9999,665,2f49261da241afa0d9c848b46d3f4d22
1,389,28,10,1,1,9999,1725,2f49261da241afa0d9c848b46d3f4d22
1,390,82,46,1,1,9999,1349,2f49261da241afa0d9c848b46d3f4d22
1,391,37,19,1,1,9999,685,2f49261da241afa0d9c848b46d3f4d22
1,392,10,46,1,1,9999,684,2f49261da241afa0d9c848b46d3f4d22
1,393,73,10,1,1,9999,963,2f49261da241afa0d9c848b46d3f4d22
1,394,46,46,1,1,9999,803,2f49261da241afa0d9c848b46d3f4d22
1,395,73,55,1,4,9999,1196,2f49261da241afa0d9c848b46d3f4d22
1,396,73,46,1,4,9999,747,2f49261da241afa0d9c848b46d3f4d22
1,397,91,10,1,1,9999,875,2f49261da241afa0d9c848b46d3f4d22
1,398,91,64,1,4,9999,1510,2f49261da241afa0d9c848b46d3f4d22
1,399,73,28,1,4,9999,946,2f49261da241afa0d9c848b46d3f4d22
4,0,28,82,2,1,0,10082,1806f9ff5fc2ab1ce3118f94da7c9c1a
4,1,64,28,3,1,0,348,1806f9ff5fc2ab1ce3118f94da7c9c1a
4,2,82,10,3,2,0,612,1806f9ff5fc2ab1ce3118f94da7c9c1a
4,3,19,64,2,2,1,702,1806f9ff5fc2ab1ce3118f94da7c9c1a
4,4,28,55,2,1,0,801,1806f9ff5fc2ab1ce3118f94da7c9c1a
4,5,19,37,1,3,0,908,1806f9ff5fc2ab1ce3118f94da7c9c1a
4,6,10,46,1,2,0,681,1806f9ff5fc2ab1ce3118f94da7c9c1a
4,7,10,37,1,1,1,948,1806f9ff5fc2ab1ce3118f94da7c9c1a
4,8,55,46,3,3,1,810,1806f9ff5fc2ab1ce3118f94da7c9c1a
4,9,55,19,3,1,0,719,1806f9ff5fc2ab1ce3118f94da7c9c1a
4,10,10,10,1,1,1,881,1806f9ff5fc2ab1ce3118f94da7c9c1a
4,11,46,64,2,4,0,903,1806f9ff5fc2ab1ce3118f94da7c9c1a
4,12,10,91,2,4,0,1106,1806f9ff5fc2ab1ce3118f94da7c9c1a
4,13,91,37,3,4,0,949,1806f9ff5fc2ab1ce3118f94da7c9c1a
4,14,37,64,2,3,0,1409,1806f9ff5fc2ab1ce3118f94da7c9c1a
4,15,64,82,4,2,0,580,1806f9ff5fc2ab1ce3118f94da7c9c1a
4,16,46,19,1,2,0,1207,1806f9ff5fc2ab1ce3118f94da7c9c1a
4,17,55,82,4,3,0,2334,1806f9ff5fc2ab1ce3118f94da7c9c1a
4,18,37,19,1,1,1,2074,1806f9ff5fc2ab1ce3118f94da7c9c1a
4,19,91,73,4,4,1,1066,1806f9ff5fc2ab1ce3118f94da7c9c1a
4,20,28,91,2,4,0,471,1806f9ff5fc2ab1ce3118f94da7c9c1a
4,21,91,82,4,4,1,1008,1806f9ff5fc2ab1ce3118f94da7c9c1a
4,22,73,10,3,3,1,2054,1806f9ff5fc2ab1ce3118f94da7c9c1a
4,23,46,37,1,3,0,1562,1806f9ff5fc2ab1ce3118f94da7c9c1a
4,24,64,37,3,2,0,2095,1806f9ff5fc2ab1ce3118f94da7c9c1a
4,25,55,10,3,3,1,1395,1806f9ff5fc2ab1ce3118f94da7c9c1a
4,26,19,91,2,2,1,2814,1806f9ff5fc2ab1ce3118f94da7c9c1a
4,27,37,28,1,1,1,1770,1806f9ff5fc2ab1ce3118f94da7c9c1a
4,28,82,37,3,2,0,1384,1806f9ff5fc2ab1ce3118f94da7c9c1a
4,29,82,73,4,4,1,1129,1806f9ff5fc2ab1ce3118f94da7c9c1a
4,30,19,10,1,2,0,1473,1806f9ff5fc2ab1ce3118f94da7c9c1a
4,31,37,46,1,3,0,1538,1806f9ff5fc2ab1ce3118f94da7c9c1a
4,32,10,82,2,2,1,2795,1806f9ff5fc2ab1ce3118f94da7c9c1a
4,33,37,55,2,3,0,1360,1806f9ff5fc2ab1ce3118f94da7c9c1a
4,34,19,73,2,4,0,2458,1806f9ff5fc2ab1ce3118f94da7c9c1a
4,35,82,91,4,4,1,707,1806f9ff5fc2ab1ce3118f94da7c9c1a
4,36,46,55,2,2,1,2525,1806f9ff5fc2ab1ce3118f94da7c9c1a
4,37,73,28,3,2,0,1225,1806f9ff5fc2ab1ce3118f94da7c9c1a
4,38,91,28,3,3,1,1671,1806f9ff5fc2ab1ce3118f94da7c9c1a
4,39,28,19,1,2,0,1178,1806f9ff5fc2ab1ce3118f94da7c9c1a
4,40,73,55,4,2,0,909,1806f9ff5fc2ab1ce3118f94da7c9c1a
4,41,73,64,4,2,0,1076,1806f9ff5fc2ab1ce3118f94da7c9c1a
4,42,46,73,2,3,0,784,1806f9ff5fc2ab1ce3118f94da7c9c1a
4,43,46,82,2,4,0,1092,1806f9ff5fc2ab1ce3118f94da7c9c1a
4,44,73,19,3,1,0,2207,1806f9ff5fc2ab1ce3118f94da7c9c1a
4,45,19,46,1,2,0,927,1806f9ff5fc2ab1ce3118f94da7c9c1a
4,46,46,28,1,1,1,1351,1806f9ff5fc2ab1ce3118f94da7c9c1a
4,47,19,82,2,4,0,1897,1806f9ff5fc2ab1ce3118f94da7c9c1a
4,48,55,91,4,2,0,1051,1806f9ff5fc2ab1ce3118f94da7c9c1a
4,49,10,73,2,3,0,2158,1806f9ff5fc2ab1ce3118f94da7c9c1a
4,50,28,37,1,2,0,1301,1806f9ff5fc2ab1ce3118f94da7c9c1a
4,51,64,91,4,4,1,952,1806f9ff5fc2ab1ce3118f94da7c9c1a
4,52,73,82,4,4,1,906,1806f9ff5fc2ab1ce3118f94da7c9c1a
4,53,82,64,4,3,0,1922,1806f9ff5fc2ab1ce3118f94da7c9c1a
4,54,82,28,3,2,0,1160,1806f9ff5fc2ab1ce3118f94da7c9c1a
4,55,28,28,1,2,0,1826,1806f9ff5fc2ab1ce3118f94da7c9c1a
4,56,37,37,1,1,1,601,1806f9ff5fc2ab1ce3118f94da7c9c1a
4,57,28,64,2,2,1,2083,1806f9ff5fc2ab1ce3118f94da7c9c1a
4,58,19,19,1,1,1,692,1806f9ff5fc2ab1ce3118f94da7c9c1a
4,59,82,19,3,1,0,589,1806f9ff5fc2ab1ce3118f94da7c9c1a
4,60,73,37,3,3,1,1408,1806f9ff5fc2ab1ce3118f94da7c9c1a
4,61,55,64,4,3,0,813,1806f9ff5fc2ab1ce3118f94da7c9c1a
4,62,37,73,2,4,0,717,1806f9ff5fc2ab1ce3118f94da7c9c1a
4,63,64,46,3,1,0,2818,1806f9ff5fc2ab1ce3118f94da7c9c1a
4,64,37,82,2,4,0,1225,1806f9ff5fc2ab1ce3118f94da7c9c1a
4,65,37,91,2,4,0,806,1806f9ff5fc2ab1ce3118f94da7c9c1a
4,66,91,10,3,1,0,1368,1806f9ff5fc2ab1ce3118f94da7c9c1a
4,67,64,73,4,3,0,993,1806f9ff5fc2ab1ce3118f94da7c9c1a
4,68,19,28,1,1,1,1621,1806f9ff5fc2ab1ce3118f94da7c9c1a
4,69,10,64,2,2,1,3001,1806f9ff5fc2ab1ce3118f94da7c9c1a
4,70,55,28,3,1,0,799,1806f9ff5fc2ab1ce3118f94da7c9c1a
4,71,10,19,1,1,1,652,1806f9ff5fc2ab1ce3118f94da7c9c1a
4,72,46,91,2,4,0,796,1806f9ff5fc2ab1ce3118f94da7c9c1a
4,73,91,19,3,3,1,2212,1806f9ff5fc2ab1ce3118f94da7c9c1a
4,74,91,55,4,2,0,1997,1806f9ff5fc2ab1ce3118f94da7c9c1a
4,75,91,91,4,4,1,1002,1806f9ff5fc2ab1ce3118f94da7c9c1a
4,76,73,46,3,2,0,1091,1806f9ff5fc2ab1ce3118f94da7c9c1a
4,77,37,10,1,1,1,941,1806f9ff5fc2ab1ce3118f94da7c9c1a
4,78,91,64,4,3,0,1459,1806f9ff5fc2ab1ce3118f94da7c9c1a
4,79,73,73,4,3,0,4555,1806f9ff5fc2ab1ce3118f94da7c9c1a
4,80,64,19,3,1,0,1105,1806f9ff5fc2ab1ce3118f94da7c9c1a
4,81,10,28,1,3,0,1179,1806f9ff5fc2ab1ce3118f94da7c9c1a
4,82,55,73,4,3,0,1189,1806f9ff5fc2ab1ce3118f94da7c9c1a
4,83,64,10,3,1,0,1023,1806f9ff5fc2ab1ce3118f94da7c9c1a
4,84,82,55,4,2,0,1103,1806f9ff5fc2ab1ce3118f94da7c9c1a
4,85,82,82,4,4,1,855,1806f9ff5fc2ab1ce3118f94da7c9c1a
4,86,46,10,1,3,0,1769,1806f9ff5fc2ab1ce3118f94da7c9c1a
4,87,91,46,3,3,1,2409,1806f9ff5fc2ab1ce3118f94da7c9c1a
4,88,64,55,4,2,0,1200,1806f9ff5fc2ab1ce3118f94da7c9c1a
4,89,19,55,2,3,0,1618,1806f9ff5fc2ab1ce3118f94da7c9c1a
4,90,55,55,4,2,0,1977,1806f9ff5fc2ab1ce3118f94da7c9c1a
4,91,64,64,4,3,0,1711,1806f9ff5fc2ab1ce3118f94da7c9c1a
4,92,46,46,1,2,0,1193,1806f9ff5fc2ab1ce3118f94da7c9c1a
4,93,28,10,1,1,1,1045,1806f9ff5fc2ab1ce3118f94da7c9c1a
4,94,55,37,3,2,0,1442,1806f9ff5fc2ab1ce3118f94da7c9c1a
4,95,73,91,4,4,1,909,1806f9ff5fc2ab1ce3118f94da7c9c1a
4,96,28,73,2,3,0,1025,1806f9ff5fc2ab1ce3118f94da7c9c1a
4,97,82,46,3,2,0,1527,1806f9ff5fc2ab1ce3118f94da7c9c1a
4,98,28,46,1,3,0,971,1806f9ff5fc2ab1ce3118f94da7c9c1a
4,99,10,55,2,3,0,1913,1806f9ff5fc2ab1ce3118f94da7c9c1a
4,100,46,10,1,1,1,535,1806f9ff5fc2ab1ce3118f94da7c9c1a
4,101,46,19,1,1,1,868,1806f9ff5fc2ab1ce3118f94da7c9c1a
4,102,55,28,3,1,0,1184,1806f9ff5fc2ab1ce3118f94da7c9c1a
4,103,91,10,3,1,0,629,1806f9ff5fc2ab1ce3118f94da7c9c1a
4,104,64,37,3,2,0,794,1806f9ff5fc2ab1ce3118f94da7c9c1a
4,105,37,91,2,4,0,742,1806f9ff5fc2ab1ce3118f94da7c9c1a
4,106,37,55,2,2,1,739,1806f9ff5fc2ab1ce3118f94da7c9c1a
4,107,82,91,4,4,1,1236,1806f9ff5fc2ab1ce3118f94da7c9c1a
4,108,28,10,1,1,1,722,1806f9ff5fc2ab1ce3118f94da7c9c1a
4,109,64,73,4,3,0,889,1806f9ff5fc2ab1ce3118f94da7c9c1a
4,110,46,64,2,2,1,731,1806f9ff5fc2ab1ce3118f94da7c9c1a
4,111,55,46,3,2,0,2664,1806f9ff5fc2ab1ce3118f94da7c9c1a
4,112,37,37,1,2,0,971,1806f9ff5fc2ab1ce3118f94da7c9c1a
4,113,91,19,3,1,0,589,1806f9ff5fc2ab1ce3118f94da7c9c1a
4,114,28,73,2,4,0,2747,1806f9ff5fc2ab1ce3118f94da7c9c1a
4,115,37,82,2,4,0,1943,1806f9ff5fc2ab1ce3118f94da7c9c1a
4,116,64,46,3,2,0,1013,1806f9ff5fc2ab1ce3118f94da7c9c1a
4,117,19,82,2,3,0,1648,1806f9ff5fc2ab1ce3118f94da7c9c1a
4,118,64,10,3,1,0,816,1806f9ff5fc2ab1ce3118f94da7c9c1a
4,119,28,28,1,1,1,1569,1806f9ff5fc2ab1ce3118f94da7c9c1a
4,120,46,28,1,2,0,910,1806f9ff5fc2ab1ce3118f94da7c9c1a
4,121,55,73,4,4,1,1458,1806f9ff5fc2ab1ce3118f94da7c9c1a
4,122,10,10,1,1,1,1077,1806f9ff5fc2ab1ce3118f94da7c9c1a
4,123,64,19,3,2,0,1312,1806f9ff5fc2ab1ce3118f94da7c9c1a
4,124,64,82,4,4,1,1135,1806f9ff5fc2ab1ce3118f94da7c9c1a
4,125,91,73,4,4,1,1223,1806f9ff5fc2ab1ce3118f94da7c9c1a
4,126,46,82,2,4,0,1373,1806f9ff5fc2ab1ce3118f94da7c9c1a
4,127,10,37,1,1,1,2005,1806f9ff5fc2ab1ce3118f94da7c9c1a
4,128,19,91,2,3,0,2547,1806f9ff5fc2ab1ce3118f94da7c9c1a
4,129,91,46,3,3,1,1217,1806f9ff5fc2ab1ce3118f94da7c9c1a
4,130,37,64,2,4,0,2701,1806f9ff5fc2ab1ce3118f94da7c9c1a
4,131,19,73,2,2,1,924,1806f9ff5fc2ab1ce3118f94da7c9c1a
4,132,55,10,3,3,1,745,1806f9ff5fc2ab1ce3118f94da7c9c1a
4,133,91,64,4,4,1,1834,1806f9ff5fc2ab1ce3118f94da7c9c1a
4,134,19,37,1,1,1,2383,1806f9ff5fc2ab1ce3118f94da7c9c1a
4,135,73,82,4,4,1,1272,1806f9ff5fc2ab1ce3118f94da7c9c1a
4,136,46,73,2,4,0,1782,1806f9ff5fc2ab1ce3118f94da7c9c1a
4,137,46,91,2,4,0,1219,1806f9ff5fc2ab1ce3118f94da7c9c1a
4,138,10,28,1,1,1,1072,1806f9ff5fc2ab1ce3118f94da7c9c1a
4,139,91,28,3,3,1,2101,1806f9ff5fc2ab1ce3118f94da7c9c1a
4,140,82,46,3,2,0,1789,1806f9ff5fc2ab1ce3118f94da7c9c1a
4,141,73,19,3,3,1,2500,1806f9ff5fc2ab1ce3118f94da7c9c1a
4,142,19,28,1,1,1,1284,1806f9ff5fc2ab1ce3118f94da7c9c1a
4,143,28,64,2,2,1,5744,1806f9ff5fc2ab1ce3118f94da7c9c1a
4,144,19,64,2,2,1,1761,1806f9ff5fc2ab1ce3118f94da7c9c1a
4,145,28,19,1,1,1,1317,1806f9ff5fc2ab1ce3118f94da7c9c1a
4,146,10,64,2,3,0,3169,1806f9ff5fc2ab1ce3118f94da7c9c1a
4,147,91,37,3,3,1,3033,1806f9ff5fc2ab1ce3118f94da7c9c1a
4,148,46,46,1,1,1,1542,1806f9ff5fc2ab1ce3118f94da7c9c1a
4,149,28,37,1,1,1,2202,1806f9ff5fc2ab1ce3118f94da7c9c1a
4,150,55,91,4,4,1,1602,1806f9ff5fc2ab1ce3118f94da7c9c1a
4,151,55,64,4,2,0,2502,1806f9ff5fc2ab1ce3118f94da7c9c1a
4,152,82,73,4,4,1,1007,1806f9ff5fc2ab1ce3118f94da7c9c1a
4,153,91,82,4,4,1,884,1806f9ff5fc2ab1ce3118f94da7c9c1a
4,154,37,46,1,1,1,2454,1806f9ff5fc2ab1ce3118f94da7c9c1a
4,155,73,37,3,3,1,1980,1806f9ff5fc2ab1ce3118f94da7c9c1a
4,156,73,91,4,4,1,1165,1806f9ff5fc2ab1ce3118f94da7c9c1a
4,157,19,10,1,1,1,1125,1806f9ff5fc2ab1ce3118f94da7c9c1a
4,158,73,55,4,4,1,1999,1806f9ff5fc2ab1ce3118f94da7c9c1a
4,159,28,46,1,1,1,2302,1806f9ff5fc2ab1ce3118f94da7c9c1a
4,160,82,10,3,3,1,1829,1806f9ff5fc2ab1ce3118f94da7c9c1a
4,161,73,28,3,1,0,1262,1806f9ff5fc2ab1ce3118f94da7c9c1a
4,162,55,55,4,4,1,1505,1806f9ff5fc2ab1ce3118f94da7c9c1a
4,163,73,46,3,4,0,1807,1806f9ff5fc2ab1ce3118f94da7c9c1a
4,164,82,64,4,4,1,1327,1806f9ff5fc2ab1ce3118f94da7c9c1a
4,165,64,55,4,1,0,2106,1806f9ff5fc2ab1ce3118f94da7c9c1a
4,166,10,19,1,1,1,1095,1806f9ff5fc2ab1ce3118f94da7c9c1a
4,167,82,82,4,4,1,1554,1806f9ff5fc2ab1ce3118f94da7c9c1a
4,168,73,64,4,3,0,2327,1806f9ff5fc2ab1ce3118f94da7c9c1a
4,169,10,73,2,2,1,3144,1806f9ff5fc2ab1ce3118f94da7c9c1a
4,170,91,91,4,4,1,784,1806f9ff5fc2ab1ce3118f94da7c9c1a
4,171,82,37,3,3,1,3018,1806f9ff5fc2ab1ce3118f94da7c9c1a
4,172,55,37,3,1,0,1717,1806f9ff5fc2ab1ce3118f94da7c9c1a
4,173,55,19,3,2,0,1217,1806f9ff5fc2ab1ce3118f94da7c9c1a
4,174,82,55,4,4,1,1061,1806f9ff5fc2ab1ce3118f94da7c9c1a
4,175,28,55,2,2,1,1486,1806f9ff5fc2ab1ce3118f94da7c9c1a
4,176,37,73,2,2,1,1599,1806f9ff5fc2ab1ce3118f94da7c9c1a
4,177,10,82,2,2,1,1124,1806f9ff5fc2ab1ce3118f94da7c9c1a
4,178,37,28,1,1,1,1414,1806f9ff5fc2ab1ce3118f94da7c9c1a
4,179,55,82,4,3,0,1237,1806f9ff5fc2ab1ce3118f94da7c9c1a
4,180,82,19,3,3,1,980,1806f9ff5fc2ab1ce3118f94da7c9c1a
4,181,19,19,1,1,1,1440,1806f9ff5fc2ab1ce3118f94da7c9c1a
4,182,28,82,2,2,1,1838,1806f9ff5fc2ab1ce3118f94da7c9c1a
4,183,10,46,1,1,1,1159,1806f9ff5fc2ab1ce3118f94da7c9c1a
4,184,73,10,3,3,1,1649,1806f9ff5fc2ab1ce3118f94da7c9c1a
4,185,19,46,1,2,0,1374,1806f9ff5fc2ab1ce3118f94da7c9c1a
4,186,64,64,4,3,0,1837,1806f9ff5fc2ab1ce3118f94da7c9c1a
4,187,37,10,1,3,0,1403,1806f9ff5fc2ab1ce3118f94da7c9c1a
4,188,10,91,2,2,1,1819,1806f9ff5fc2ab1ce3118f94da7c9c1a
4,189,19,55,2,1,0,1672,1806f9ff5fc2ab1ce3118f94da7c9c1a
4,190,46,37,1,2,0,1648,1806f9ff5fc2ab1ce3118f94da7c9c1a
4,191,37,19,1,3,0,1498,1806f9ff5fc2ab1ce3118f94da7c9c1a
4,192,64,28,3,1,0,1737,1806f9ff5fc2ab1ce3118f94da7c9c1a
4,193,10,55,2,3,0,2638,1806f9ff5fc2ab1ce3118f94da7c9c1a
4,194,82,28,3,3,1,610,1806f9ff5fc2ab1ce3118f94da7c9c1a
4,195,28,91,2,2,1,1922,1806f9ff5fc2ab1ce3118f94da7c9c1a
4,196,64,91,4,4,1,1139,1806f9ff5fc2ab1ce3118f94da7c9c1a
4,197,91,55,4,4,1,2195,1806f9ff5fc2ab1ce3118f94da7c9c1a
4,198,73,73,4,4,1,980,1806f9ff5fc2ab1ce3118f94da7c9c1a
4,199,46,55,2,4,0,1309,1806f9ff5fc2ab1ce3118f94da7c9c1a
4,200,82,28,3,3,1,899,1806f9ff5fc2ab1ce3118f94da7c9c1a
4,201,37,46,1,1,1,1648,1806f9ff5fc2ab1ce3118f94da7c9c1a
4,202,10,19,1,1,1,815,1806f9ff5fc2ab1ce3118f94da7c9c1a
4,203,55,64,4,4,1,1454,1806f9ff5fc2ab1ce3118f94da7c9c1a
4,204,91,37,3,3,1,950,1806f9ff5fc2ab1ce3118f94da7c9c1a
4,205,10,82,2,2,1,667,1806f9ff5fc2ab1ce3118f94da7c9c1a
4,206,19,82,2,2,1,805,1806f9ff5fc2ab1ce3118f94da7c9c1a
4,207,91,64,4,4,1,1110,1806f9ff5fc2ab1ce3118f94da7c9c1a
4,208,64,37,3,3,1,1439,1806f9ff5fc2ab1ce3118f94da7c9c1a
4,209,10,28,1,1,1,1055,1806f9ff5fc2ab1ce3118f94da7c9c1a
4,210,46,46,1,4,0,1680,1806f9ff5fc2ab1ce3118f94da7c9c1a
4,211,91,55,4,3,0,1260,1806f9ff5fc2ab1ce3118f94da7c9c1a
4,212,46,82,2,4,0,737,1806f9ff5fc2ab1ce3118f94da7c9c1a
4,213,19,10,1,1,1,1099,1806f9ff5fc2ab1ce3118f94da7c9c1a
4,214,37,82,2,4,0,1170,1806f9ff5fc2ab1ce3118f94da7c9c1a
4,215,91,82,4,4,1,911,1806f9ff5fc2ab1ce3118f94da7c9c1a
4,216,55,10,3,3,1,1490,1806f9ff5fc2ab1ce3118f94da7c9c1a
4,217,37,73,2,4,0,2285,1806f9ff5fc2ab1ce3118f94da7c9c1a
4,218,10,73,2,2,1,2071,1806f9ff5fc2ab1ce3118f94da7c9c1a
4,219,64,19,3,3,1,2091,1806f9ff5fc2ab1ce3118f94da7c9c1a
4,220,64,55,4,1,0,3246,1806f9ff5fc2ab1ce3118f94da7c9c1a
4,221,82,10,3,3,1,1125,1806f9ff5fc2ab1ce3118f94da7c9c1a
4,222,82,91,4,4,1,1048,1806f9ff5fc2ab1ce3118f94da7c9c1a
4,223,55,28,3,3,1,1219,1806f9ff5fc2ab1ce3118f94da7c9c1a
4,224,55,73,4,3,0,1990,1806f9ff5fc2ab1ce3118f94da7c9c1a
4,225,55,82,4,4,1,796,1806f9ff5fc2ab1ce3118f94da7c9c1a
4,226,19,37,1,1,1,1511,1806f9ff5fc2ab1ce3118f94da7c9c1a
4,227,64,10,3,1,0,991,1806f9ff5fc2ab1ce3118f94da7c9c1a
4,228,82,64,4,4,1,1327,1806f9ff5fc2ab1ce3118f94da7c9c1a
4,229,55,37,3,3,1,1714,1806f9ff5fc2ab1ce3118f94da7c9c1a
4,230,73,37,3,3,1,2220,1806f9ff5fc2ab1ce3118f94da7c9c1a
4,231,73,73,4,4,1,1285,1806f9ff5fc2ab1ce3118f94da7c9c1a
4,232,55,91,4,2,0,1556,1806f9ff5fc2ab1ce3118f94da7c9c1a
4,233,37,37,1,2,0,1981,1806f9ff5fc2ab1ce3118f94da7c9c1a
4,234,37,19,1,1,1,845,1806f9ff5fc2ab1ce3118f94da7c9c1a
4,235,55,46,3,3,1,2536,1806f9ff5fc2ab1ce3118f94da7c9c1a
4,236,91,91,4,4,1,1000,1806f9ff5fc2ab1ce3118f94da7c9c1a
4,237,37,91,2,2,1,1563,1806f9ff5fc2ab1ce3118f94da7c9c1a
4,238,19,91,2,2,1,1396,1806f9ff5fc2ab1ce3118f94da7c9c1a
4,239,91,10,3,3,1,1684,1806f9ff5fc2ab1ce3118f94da7c9c1a
4,240,19,55,2,1,0,1104,1806f9ff5fc2ab1ce3118f94da7c9c1a
4,241,46,91,2,4,0,1196,1806f9ff5fc2ab1ce3118f94da7c9c1a
4,242,64,46,3,3,1,2008,1806f9ff5fc2ab1ce3118f94da7c9c1a
4,243,82,82,4,4,1,1302,1806f9ff5fc2ab1ce3118f94da7c9c1a
4,244,82,55,4,2,0,2303,1806f9ff5fc2ab1ce3118f94da7c9c1a
4,245,19,28,1,1,1,1294,1806f9ff5fc2ab1ce3118f94da7c9c1a
4,246,73,46,3,3,1,1173,1806f9ff5fc2ab1ce3118f94da7c9c1a
4,247,46,19,1,3,0,1165,1806f9ff5fc2ab1ce3118f94da7c9c1a
4,248,28,37,1,1,1,1692,1806f9ff5fc2ab1ce3118f94da7c9c1a
4,249,37,64,2,2,1,1703,1806f9ff5fc2ab1ce3118f94da7c9c1a
4,250,91,19,3,3,1,871,1806f9ff5fc2ab1ce3118f94da7c9c1a
4,251,55,19,3,3,1,1096,1806f9ff5fc2ab1ce3118f94da7c9c1a
4,252,91,73,4,4,1,1106,1806f9ff5fc2ab1ce3118f94da7c9c1a
4,253,46,37,1,2,0,1523,1806f9ff5fc2ab1ce3118f94da7c9c1a
4,254,82,19,3,3,1,1472,1806f9ff5fc2ab1ce3118f94da7c9c1a
4,255,82,73,4,4,1,1080,1806f9ff5fc2ab1ce3118f94da7c9c1a
4,256,46,64,2,4,0,1271,1806f9ff5fc2ab1ce3118f94da7c9c1a
4,257,46,55,2,2,1,1370,1806f9ff5fc2ab1ce3118f94da7c9c1a
4,258,46,10,1,3,0,883,1806f9ff5fc2ab1ce3118f94da7c9c1a
4,259,19,19,1,1,1,890,1806f9ff5fc2ab1ce3118f94da7c9c1a
4,260,64,91,4,4,1,1095,1806f9ff5fc2ab1ce3118f94da7c9c1a
4,261,73,91,4,4,1,877,1806f9ff5fc2ab1ce3118f94da7c9c1a
4,262,10,10,1,1,1,939,1806f9ff5fc2ab1ce3118f94da7c9c1a
4,263,73,82,4,4,1,802,1806f9ff5fc2ab1ce3118f94da7c9c1a
4,264,10,46,1,1,1,925,1806f9ff5fc2ab1ce3118f94da7c9c1a
4,265,28,46,1,1,1,832,1806f9ff5fc2ab1ce3118f94da7c9c1a
4,266,73,28,3,4,0,1041,1806f9ff5fc2ab1ce3118f94da7c9c1a
4,267,10,55,2,2,1,2605,1806f9ff5fc2ab1ce3118f94da7c9c1a
4,268,82,46,3,3,1,1063,1806f9ff5fc2ab1ce3118f94da7c9c1a
4,269,28,28,1,1,1,1665,1806f9ff5fc2ab1ce3118f94da7c9c1a
4,270,73,10,3,3,1,923,1806f9ff5fc2ab1ce3118f94da7c9c1a
4,271,37,10,1,1,1,1942,1806f9ff5fc2ab1ce3118f94da7c9c1a
4,272,82,37,3,3,1,2125,1806f9ff5fc2ab1ce3118f94da7c9c1a
4,273,19,46,1,1,1,2984,1806f9ff5fc2ab1ce3118f94da7c9c1a
4,274,10,37,1,1,1,2945,1806f9ff5fc2ab1ce3118f94da7c9c1a
4,275,10,64,2,2,1,1629,1806f9ff5fc2ab1ce3118f94da7c9c1a
4,276,64,28,3,3,1,2909,1806f9ff5fc2ab1ce3118f94da7c9c1a
4,277,73,64,4,4,1,1631,1806f9ff5fc2ab1ce3118f94da7c9c1a
4,278,28,55,2,2,1,1624,1806f9ff5fc2ab1ce3118f94da7c9c1a
4,279,28,64,2,2,1,4319,1806f9ff5fc2ab1ce3118f94da7c9c1a
4,280,28,91,2,4,0,2470,1806f9ff5fc2ab1ce3118f94da7c9c1a
4,281,73,55,4,2,0,1499,1806f9ff5fc2ab1ce3118f94da7c9c1a
4,282,55,55,4,2,0,1463,1806f9ff5fc2ab1ce3118f94da7c9c1a
4,283,28,10,1,3,0,1931,1806f9ff5fc2ab1ce3118f94da7c9c1a
4,284,73,19,3,3,1,1154,1806f9ff5fc2ab1ce3118f94da7c9c1a
4,285,28,73,2,2,1,1993,1806f9ff5fc2ab1ce3118f94da7c9c1a
4,286,19,73,2,2,1,1063,1806f9ff5fc2ab1ce3118f94da7c9c1a
4,287,91,28,3,3,1,1217,1806f9ff5fc2ab1ce3118f94da7c9c1a
4,288,91,46,3,3,1,1211,1806f9ff5fc2ab1ce3118f94da7c9c1a
4,289,28,19,1,1,1,1921,1806f9ff5fc2ab1ce3118f94da7c9c1a
4,290,64,73,4,4,1,2145,1806f9ff5fc2ab1ce3118f94da7c9c1a
4,291,37,55,2,2,1,1750,1806f9ff5fc2ab1ce3118f94da7c9c1a
4,292,37,28,1,3,0,1958,1806f9ff5fc2ab1ce3118f94da7c9c1a
4,293,64,64,4,3,0,1303,1806f9ff5fc2ab1ce3118f94da7c9c1a
4,294,46,28,1,3,0,1551,1806f9ff5fc2ab1ce3118f94da7c9c1a
4,295,10,91,2,2,1,2095,1806f9ff5fc2ab1ce3118f94da7c9c1a
4,296,28,82,2,2,1,3014,1806f9ff5fc2ab1ce3118f94da7c9c1a
4,297,19,64,2,2,1,1216,1806f9ff5fc2ab1ce3118f94da7c9c1a
4,298,46,73,2,4,0,2151,1806f9ff5fc2ab1ce3118f94da7c9c1a
4,299,64,82,4,4,1,1399,1806f9ff5fc2ab1ce3118f94da7c9c1a
4,300,28,37,1,2,0,1587,1806f9ff5fc2ab1ce3118f94da7c9c1a
4,301,73,55,4,2,0,909,1806f9ff5fc2ab1ce3118f94da7c9c1a
4,302,10,82,2,2,1,1228,1806f9ff5fc2ab1ce3118f94da7c9c1a
4,303,19,28,1,1,1,1313,1806f9ff5fc2ab1ce3118f94da7c9c1a
4,304,37,64,2,2,1,1762,1806f9ff5fc2ab1ce3118f94da7c9c1a
4,305,19,91,2,2,1,1732,1806f9ff5fc2ab1ce3118f94da7c9c1a
4,306,73,64,4,2,0,1672,1806f9ff5fc2ab1ce3118f94da7c9c1a
4,307,46,10,1,1,1,1633,1806f9ff5fc2ab1ce3118f94da7c9c1a
4,308,64,37,3,2,0,1718,1806f9ff5fc2ab1ce3118f94da7c9c1a
4,309,19,82,2,2,1,1009,1806f9ff5fc2ab1ce3118f94da7c9c1a
4,310,64,73,4,4,1,1253,1806f9ff5fc2ab1ce3118f94da7c9c1a
4,311,46,28,1,3,0,1698,1806f9ff5fc2ab1ce3118f94da7c9c1a
4,312,10,10,1,1,1,879,1806f9ff5fc2ab1ce3118f94da7c9c1a
4,313,55,10,3,3,1,1191,1806f9ff5fc2ab1ce3118f94da7c9c1a
4,314,28,91,2,4,0,1389,1806f9ff5fc2ab1ce3118f94da7c9c1a
4,315,46,64,2,2,1,1945,1806f9ff5fc2ab1ce3118f94da7c9c1a
4,316,28,55,2,2,1,1318,1806f9ff5fc2ab1ce3118f94da7c9c1a
4,317,55,28,3,2,0,805,1806f9ff5fc2ab1ce3118f94da7c9c1a
4,318,82,46,3,3,1,1783,1806f9ff5fc2ab1ce3118f94da7c9c1a
4,319,28,82,2,2,1,1378,1806f9ff5fc2ab1ce3118f94da7c9c1a
4,320,55,46,3,1,0,2067,1806f9ff5fc2ab1ce3118f94da7c9c1a
4,321,55,64,4,2,0,1138,1806f9ff5fc2ab1ce3118f94da7c9c1a
4,322,82,73,4,4,1,822,1806f9ff5fc2ab1ce3118f94da7c9c1a
4,323,28,64,2,2,1,2117,1806f9ff5fc2ab1ce3118f94da7c9c1a
4,324,37,19,1,2,0,3348,1806f9ff5fc2ab1ce3118f94da7c9c1a
4,325,28,10,1,1,1,1323,1806f9ff5fc2ab1ce3118f94da7c9c1a
4,326,10,28,1,1,1,1544,1806f9ff5fc2ab1ce3118f94da7c9c1a
4,327,10,91,2,3,0,2224,1806f9ff5fc2ab1ce3118f94da7c9c1a
4,328,91,46,3,3,1,1579,1806f9ff5fc2ab1ce3118f94da7c9c1a
4,329,82,82,4,4,1,1049,1806f9ff5fc2ab1ce3118f94da7c9c1a
4,330,91,73,4,2,0,1837,1806f9ff5fc2ab1ce3118f94da7c9c1a
4,331,28,73,2,2,1,1788,1806f9ff5fc2ab1ce3118f94da7c9c1a
4,332,91,19,3,3,1,1036,1806f9ff5fc2ab1ce3118f94da7c9c1a
4,333,91,55,4,2,0,1988,1806f9ff5fc2ab1ce3118f94da7c9c1a
4,334,37,73,2,4,0,1697,1806f9ff5fc2ab1ce3118f94da7c9c1a
4,335,64,91,4,3,0,2789,1806f9ff5fc2ab1ce3118f94da7c9c1a
4,336,55,37,3,3,1,1458,1806f9ff5fc2ab1ce3118f94da7c9c1a
4,337,37,82,2,2,1,1548,1806f9ff5fc2ab1ce3118f94da7c9c1a
4,338,73,73,4,2,0,1719,1806f9ff5fc2ab1ce3118f94da7c9c1a
4,339,82,28,3,2,0,1708,1806f9ff5fc2ab1ce3118f94da7c9c1a
4,340,46,55,2,2,1,964,1806f9ff5fc2ab1ce3118f94da7c9c1a
4,341,64,10,3,1,0,1422,1806f9ff5fc2ab1ce3118f94da7c9c1a
4,342,73,10,3,3,1,790,1806f9ff5fc2ab1ce3118f94da7c9c1a
4,343,28,19,1,2,0,1121,1806f9ff5fc2ab1ce3118f94da7c9c1a
4,344,19,64,2,2,1,790,1806f9ff5fc2ab1ce3118f94da7c9c1a
4,345,46,37,1,2,0,1341,1806f9ff5fc2ab1ce3118f94da7c9c1a
4,346,19,55,2,2,1,1244,1806f9ff5fc2ab1ce3118f94da7c9c1a
4,347,82,10,3,3,1,733,1806f9ff5fc2ab1ce3118f94da7c9c1a
4,348,64,55,4,4,1,987,1806f9ff5fc2ab1ce3118f94da7c9c1a
4,349,82,55,4,2,0,1483,1806f9ff5fc2ab1ce3118f94da7c9c1a
4,350,64,82,4,4,1,767,1806f9ff5fc2ab1ce3118f94da7c9c1a
4,351,19,73,2,2,1,1216,1806f9ff5fc2ab1ce3118f94da7c9c1a
4,352,37,10,1,2,0,2178,1806f9ff5fc2ab1ce3118f94da7c9c1a
4,353,82,19,3,1,0,496,1806f9ff5fc2ab1ce3118f94da7c9c1a
4,354,28,28,1,2,0,1463,1806f9ff5fc2ab1ce3118f94da7c9c1a
4,355,73,28,3,2,0,1129,1806f9ff5fc2ab1ce3118f94da7c9c1a
4,356,37,37,1,1,1,1601,1806f9ff5fc2ab1ce3118f94da7c9c1a
4,357,73,82,4,4,1,1166,1806f9ff5fc2ab1ce3118f94da7c9c1a
4,358,28,46,1,2,0,1255,1806f9ff5fc2ab1ce3118f94da7c9c1a
4,359,73,37,3,3,1,1486,1806f9ff5fc2ab1ce3118f94da7c9c1a
4,360,19,19,1,1,1,1517,1806f9ff5fc2ab1ce3118f94da7c9c1a
4,361,46,73,2,1,0,1736,1806f9ff5fc2ab1ce3118f94da7c9c1a
4,362,91,64,4,3,0,1529,1806f9ff5fc2ab1ce3118f94da7c9c1a
4,363,64,19,3,3,1,1034,1806f9ff5fc2ab1ce3118f94da7c9c1a
4,364,37,91,2,4,0,1075,1806f9ff5fc2ab1ce3118f94da7c9c1a
4,365,91,10,3,3,1,1426,1806f9ff5fc2ab1ce3118f94da7c9c1a
4,366,82,91,4,4,1,711,1806f9ff5fc2ab1ce3118f94da7c9c1a
4,367,55,55,4,2,0,2198,1806f9ff5fc2ab1ce3118f94da7c9c1a
4,368,55,82,4,4,1,1004,1806f9ff5fc2ab1ce3118f94da7c9c1a
4,369,91,28,3,3,1,1250,1806f9ff5fc2ab1ce3118f94da7c9c1a
4,370,73,19,3,3,1,819,1806f9ff5fc2ab1ce3118f94da7c9c1a
4,371,64,28,3,3,1,1035,1806f9ff5fc2ab1ce3118f94da7c9c1a
4,372,10,37,1,1,1,1827,1806f9ff5fc2ab1ce3118f94da7c9c1a
4,373,46,46,1,1,1,2036,1806f9ff5fc2ab1ce3118f94da7c9c1a
4,374,82,64,4,4,1,1549,1806f9ff5fc2ab1ce3118f94da7c9c1a
4,375,91,91,4,4,1,952,1806f9ff5fc2ab1ce3118f94da7c9c1a
4,376,10,73,2,3,0,3080,1806f9ff5fc2ab1ce3118f94da7c9c1a
4,377,73,91,4,2,0,1442,1806f9ff5fc2ab1ce3118f94da7c9c1a
4,378,10,64,2,2,1,2179,1806f9ff5fc2ab1ce3118f94da7c9c1a
4,379,46,19,1,3,0,2854,1806f9ff5fc2ab1ce3118f94da7c9c1a
4,380,46,91,2,4,0,1147,1806f9ff5fc2ab1ce3118f94da7c9c1a
4,381,55,19,3,3,1,1567,1806f9ff5fc2ab1ce3118f94da7c9c1a
4,382,82,37,3,3,1,1779,1806f9ff5fc2ab1ce3118f94da7c9c1a
4,383,55,73,4,4,1,781,1806f9ff5fc2ab1ce3118f94da7c9c1a
4,384,19,37,1,1,1,1751,1806f9ff5fc2ab1ce3118f94da7c9c1a
4,385,10,19,1,1,1,901,1806f9ff5fc2ab1ce3118f94da7c9c1a
4,386,64,46,3,2,0,1765,1806f9ff5fc2ab1ce3118f94da7c9c1a
4,387,91,37,3,3,1,834,1806f9ff5fc2ab1ce3118f94da7c9c1a
4,388,37,46,1,2,0,1363,1806f9ff5fc2ab1ce3118f94da7c9c1a
4,389,37,28,1,1,1,935,1806f9ff5fc2ab1ce3118f94da7c9c1a
4,390,64,64,4,4,1,1454,1806f9ff5fc2ab1ce3118f94da7c9c1a
4,391,19,10,1,1,1,1057,1806f9ff5fc2ab1ce3118f94da7c9c1a
4,392,55,91,4,4,1,848,1806f9ff5fc2ab1ce3118f94da7c9c1a
4,393,73,46,3,3,1,1473,1806f9ff5fc2ab1ce3118f94da7c9c1a
4,394,91,82,4,4,1,955,1806f9ff5fc2ab1ce3118f94da7c9c1a
4,395,10,55,2,2,1,1541,1806f9ff5fc2ab1ce3118f94da7c9c1a
4,396,10,46,1,1,1,1120,1806f9ff5fc2ab1ce3118f94da7c9c1a
4,397,37,55,2,2,1,1706,1806f9ff5fc2ab1ce3118f94da7c9c1a
4,398,46,82,2,4,0,869,1806f9ff5fc2ab1ce3118f94da7c9c1a
4,399,19,46,1,1,1,1732,1806f9ff5fc2ab1ce3118f94da7c9c1a
1,0,46,10,1,4,9999,6623,503447d79af937496e9c132325522ee7
1,1,73,82,1,4,9999,868,503447d79af937496e9c132325522ee7
1,2,73,46,1,1,9999,1250,503447d79af937496e9c132325522ee7
1,3,37,10,1,1,9999,1985,503447d79af937496e9c132325522ee7
1,4,19,46,1,1,9999,1596,503447d79af937496e9c132325522ee7
1,5,46,28,1,1,9999,794,503447d79af937496e9c132325522ee7
1,6,28,82,1,4,9999,1060,503447d79af937496e9c132325522ee7
1,7,91,91,1,4,9999,2805,503447d79af937496e9c132325522ee7
1,8,10,28,1,4,9999,1131,503447d79af937496e9c132325522ee7
1,9,91,10,1,4,9999,1157,503447d79af937496e9c132325522ee7
1,10,28,10,1,4,9999,870,503447d79af937496e9c132325522ee7
1,11,55,19,1,4,9999,1775,503447d79af937496e9c132325522ee7
1,12,37,64,1,1,9999,612,503447d79af937496e9c132325522ee7
1,13,64,19,1,1,9999,613,503447d79af937496e9c132325522ee7
1,14,19,37,1,4,9999,1008,503447d79af937496e9c132325522ee7
1,15,10,37,1,4,9999,775,503447d79af937496e9c132325522ee7
1,16,10,28,1,4,9999,535,503447d79af937496e9c132325522ee7
1,17,28,55,1,1,9999,1173,503447d79af937496e9c132325522ee7
1,18,55,73,1,1,9999,628,503447d79af937496e9c132325522ee7
1,19,19,64,1,4,9999,711,503447d79af937496e9c132325522ee7
1,20,46,46,1,1,9999,646,503447d79af937496e9c132325522ee7
1,21,82,91,1,4,9999,774,503447d79af937496e9c132325522ee7
1,22,19,55,1,4,9999,661,503447d79af937496e9c132325522ee7
1,23,64,91,1,4,9999,859,503447d79af937496e9c132325522ee7
1,24,73,82,1,1,9999,768,503447d79af937496e9c132325522ee7
1,25,82,55,1,1,9999,671,503447d79af937496e9c132325522ee7
1,26,91,91,1,4,9999,787,503447d79af937496e9c132325522ee7
1,27,55,19,1,4,9999,644,503447d79af937496e9c132325522ee7
1,28,82,64,1,1,9999,715,503447d79af937496e9c132325522ee7
1,29,46,10,1,4,9999,720,503447d79af937496e9c132325522ee7
1,30,64,55,1,1,9999,828,503447d79af937496e9c132325522ee7
1,31,46,64,1,1,9999,976,503447d79af937496e9c132325522ee7
1,32,28,46,1,4,9999,2570,503447d79af937496e9c132325522ee7
1,33,10,91,1,4,9999,2419,503447d79af937496e9c132325522ee7
1,34,28,37,1,4,9999,1353,503447d79af937496e9c132325522ee7
1,35,55,64,1,1,9999,820,503447d79af937496e9c132325522ee7
1,36,46,37,1,4,9999,1069,503447d79af937496e9c132325522ee7
1,37,46,91,1,4,9999,604,503447d79af937496e9c132325522ee7
1,38,55,19,1,4,9999,622,503447d79af937496e9c132325522ee7
1,39,82,46,1,1,9999,649,503447d79af937496e9c132325522ee7
1,40,37,55,1,1,9999,654,503447d79af937496e9c132325522ee7
1,41,55,28,1,4,9999,988,503447d79af937496e9c132325522ee7
1,42,64,46,1,1,9999,1467,503447d79af937496e9c132325522ee7
1,43,46,73,1,4,9999,882,503447d79af937496e9c132325522ee7
1,44,91,55,1,1,9999,1582,503447d79af937496e9c132325522ee7
1,45,46,46,1,4,9999,952,503447d79af937496e9c132325522ee7
1,46,37,28,1,4,9999,591,503447d79af937496e9c132325522ee7
1,47,82,19,1,1,9999,1114,503447d79af937496e9c132325522ee7
1,48,73,28,1,4,9999,792,503447d79af937496e9c132325522ee7
1,49,82,10,1,4,9999,549,503447d79af937496e9c132325522ee7
1,50,10,55,1,1,9999,552,503447d79af937496e9c132325522ee7
1,51,46,82,1,4,9999,1432,503447d79af937496e9c132325522ee7
1,52,37,82,1,1,9999,1072,503447d79af937496e9c132325522ee7
1,53,73,19,1,4,9999,635,503447d79af937496e9c132325522ee7
1,54,46,46,1,1,9999,631,503447d79af937496e9c132325522ee7
1,55,73,19,1,4,9999,712,503447d79af937496e9c132325522ee7
1,56,73,64,1,1,9999,634,503447d79af937496e9c132325522ee7
1,57,46,19,1,4,9999,567,503447d79af937496e9c132325522ee7
1,58,82,28,1,1,9999,602,503447d79af937496e9c132325522ee7
1,59,28,19,1,4,9999,627,503447d79af937496e9c132325522ee7
1,60,91,82,1,1,9999,859,503447d79af937496e9c132325522ee7
1,61,46,91,1,1,9999,544,503447d79af937496e9c132325522ee7
1,62,64,91,1,1,9999,478,503447d79af937496e9c132325522ee7
1,63,28,10,1,1,9999,676,503447d79af937496e9c132325522ee7
1,64,82,82,1,1,9999,982,503447d79af937496e9c132325522ee7
1,65,19,73,1,4,9999,4735,503447d79af937496e9c132325522ee7
1,66,10,37,1,1,9999,2038,503447d79af937496e9c132325522ee7
1,67,37,91,1,1,9999,597,503447d79af937496e9c132325522ee7
1,68,73,37,1,4,9999,1012,503447d79af937496e9c132325522ee7
1,69,28,73,1,1,9999,736,503447d79af937496e9c132325522ee7
1,70,91,19,1,1,9999,656,503447d79af937496e9c132325522ee7
1,71,10,91,1,1,9999,712,503447d79af937496e9c132325522ee7
1,72,91,28,1,1,9999,658,503447d79af937496e9c132325522ee7
1,73,55,10,1,1,9999,554,503447d79af937496e9c132325522ee7
1,74,28,46,1,1,9999,1064,503447d79af937496e9c132325522ee7
1,75,73,91,1,4,9999,682,503447d79af937496e9c132325522ee7
1,76,19,82,1,1,9999,774,503447d79af937496e9c132325522ee7
1,77,82,19,1,1,9999,669,503447d79af937496e9c132325522ee7
1,78,10,28,1,1,9999,1838,503447d79af937496e9c132325522ee7
1,79,55,37,1,2,9999,2410,503447d79af937496e9c132325522ee7
1,80,37,73,1,1,9999,1852,503447d79af937496e9c132325522ee7
1,81,46,28,1,1,9999,1875,503447d79af937496e9c132325522ee7
1,82,73,82,1,1,9999,866,503447d79af937496e9c132325522ee7
1,83,19,46,1,2,9999,560,503447d79af937496e9c132325522ee7
1,84,91,37,1,1,9999,1439,503447d79af937496e9c132325522ee7
1,85,37,19,1,1,9999,510,503447d79af937496e9c132325522ee7
1,86,28,10,1,1,9999,530,503447d79af937496e9c132325522ee7
1,87,37,82,1,1,9999,693,503447d79af937496e9c132325522ee7
1,88,64,82,1,3,9999,6178,503447d79af937496e9c132325522ee7
1,89,73,46,1,3,9999,444,503447d79af937496e9c132325522ee7
1,90,64,19,1,4,9999,1463,503447d79af937496e9c132325522ee7
1,91,64,82,1,4,9999,456,503447d79af937496e9c132325522ee7
1,92,64,82,1,4,9999,853,503447d79af937496e9c132325522ee7
1,93,28,28,1,4,9999,522,503447d79af937496e9c132325522ee7
1,94,28,91,1,3,9999,567,503447d79af937496e9c132325522ee7
1,95,55,64,1,2,9999,488,503447d79af937496e9c132325522ee7
1,96,28,64,1,4,9999,353,503447d79af937496e9c132325522ee7
1,97,10,73,1,4,9999,376,503447d79af937496e9c132325522ee7
1,98,91,10,1,4,9999,353,503447d79af937496e9c132325522ee7
1,99,91,19,1,2,9999,478,503447d79af937496e9c132325522ee7
1,100,37,28,1,4,9999,969,503447d79af937496e9c132325522ee7
1,101,64,28,1,3,9999,595,503447d79af937496e9c132325522ee7
1,102,28,55,1,3,9999,556,503447d79af937496e9c132325522ee7
1,103,64,55,1,1,9999,643,503447d79af937496e9c132325522ee7
1,104,46,91,1,4,9999,246,503447d79af937496e9c132325522ee7
1,105,55,28,1,3,9999,658,503447d79af937496e9c132325522ee7
1,106,64,10,1,2,9999,571,503447d79af937496e9c132325522ee7
1,107,28,46,1,3,9999,524,503447d79af937496e9c132325522ee7
1,108,82,73,1,4,9999,289,503447d79af937496e9c132325522ee7
1,109,37,73,1,1,9999,387,503447d79af937496e9c132325522ee7
1,110,73,10,1,1,9999,719,503447d79af937496e9c132325522ee7
1,111,19,91,1,1,9999,477,503447d79af937496e9c132325522ee7
1,112,91,82,1,1,9999,539,503447d79af937496e9c132325522ee7
1,113,10,46,1,1,9999,612,503447d79af937496e9c132325522ee7
1,114,19,82,1,1,9999,408,503447d79af937496e9c132325522ee7
1,115,55,91,1,1,9999,408,503447d79af937496e9c132325522ee7
1,116,46,19,1,2,9999,448,503447d79af937496e9c132325522ee7
1,117,28,37,1,1,9999,311,503447d79af937496e9c132325522ee7
1,118,10,55,1,3,9999,378,503447d79af937496e9c132325522ee7
1,119,91,82,1,3,9999,346,503447d79af937496e9c132325522ee7
1,120,19,46,1,4,9999,827,503447d79af937496e9c132325522ee7
1,121,73,46,1,3,9999,846,503447d79af937496e9c132325522ee7
1,122,82,64,1,4,9999,476,503447d79af937496e9c132325522ee7
1,123,28,82,1,3,9999,703,503447d79af937496e9c132325522ee7
1,124,19,10,1,3,9999,304,503447d79af937496e9c132325522ee7
1,125,19,28,1,4,9999,349,503447d79af937496e9c132325522ee7
1,126,19,37,1,1,9999,295,503447d79af937496e9c132325522ee7
1,127,91,91,1,3,9999,1323,503447d79af937496e9c132325522ee7
1,128,19,55,1,4,9999,350,503447d79af937496e9c132325522ee7
1,129,46,37,1,3,9999,390,503447d79af937496e9c132325522ee7
1,130,46,55,1,2,9999,250,503447d79af937496e9c132325522ee7
1,131,64,91,1,3,9999,329,503447d79af937496e9c132325522ee7
1,132,55,91,1,1,9999,406,503447d79af937496e9c132325522ee7
1,133,37,10,1,4,9999,1,503447d79af937496e9c132325522ee7
1,134,10,73,1,4,9999,119,503447d79af937496e9c132325522ee7
1,135,37,82,1,3,9999,599,503447d79af937496e9c132325522ee7
1,136,64,10,1,1,9999,1236,503447d79af937496e9c132325522ee7
1,137,64,46,1,4,9999,1196,503447d79af937496e9c132325522ee7
1,138,37,55,1,4,9999,695,503447d79af937496e9c132325522ee7
1,139,46,73,1,3,9999,726,503447d79af937496e9c132325522ee7
1,140,10,55,1,3,9999,754,503447d79af937496e9c132325522ee7
1,141,10,46,1,4,9999,253,503447d79af937496e9c132325522ee7
1,142,64,64,1,4,9999,435,503447d79af937496e9c132325522ee7
1,143,19,73,1,4,9999,41,503447d79af937496e9c132325522ee7
1,144,28,64,1,4,9999,175,503447d79af937496e9c132325522ee7
1,145,55,82,1,4,9999,164,503447d79af937496e9c132325522ee7
1,146,91,73,1,4,9999,26,503447d79af937496e9c132325522ee7
1,147,91,10,1,4,9999,33,503447d79af937496e9c132325522ee7
1,148,19,37,1,4,9999,210,503447d79af937496e9c132325522ee7
1,149,91,55,1,4,9999,203,503447d79af937496e9c132325522ee7
1,150,10,82,1,1,9999,119,503447d79af937496e9c132325522ee7
1,151,46,82,1,1,9999,92,503447d79af937496e9c132325522ee7
1,152,37,91,1,4,9999,129,503447d79af937496e9c132325522ee7
1,153,28,55,1,4,9999,74,503447d79af937496e9c132325522ee7
1,154,10,46,1,4,9999,130,503447d79af937496e9c132325522ee7
1,155,28,28,1,4,9999,202,503447d79af937496e9c132325522ee7
1,156,28,73,1,4,9999,35,503447d79af937496e9c132325522ee7
1,157,37,37,1,4,9999,138,503447d79af937496e9c132325522ee7
1,158,82,28,1,4,9999,82,503447d79af937496e9c132325522ee7
1,159,37,37,1,4,9999,22,503447d79af937496e9c132325522ee7
1,160,73,64,1,4,9999,2080,503447d79af937496e9c132325522ee7
1,161,73,55,1,4,9999,857,503447d79af937496e9c132325522ee7
1,162,91,64,1,4,9999,4,503447d79af937496e9c132325522ee7
1,163,91,73,1,4,9999,45,503447d79af937496e9c132325522ee7
1,164,82,55,1,4,9999,199,503447d79af937496e9c132325522ee7
1,165,55,82,1,4,9999,123,503447d79af937496e9c132325522ee7
1,166,64,19,1,4,9999,107,503447d79af937496e9c132325522ee7
1,167,19,64,1,1,9999,119,503447d79af937496e9c132325522ee7
1,168,73,19,1,1,9999,71,503447d79af937496e9c132325522ee7
1,169,55,28,1,1,9999,110,503447d79af937496e9c132325522ee7
1,170,55,46,1,4,9999,2,503447d79af937496e9c132325522ee7
1,171,37,91,1,4,9999,2,503447d79af937496e9c132325522ee7
1,172,37,64,1,4,9999,35,503447d79af937496e9c132325522ee7
1,173,55,37,1,4,9999,168,503447d79af937496e9c132325522ee7
1,174,19,28,1,4,9999,222,503447d79af937496e9c132325522ee7
1,175,91,55,1,4,9999,206,503447d79af937496e9c132325522ee7
1,176,73,37,1,1,9999,85,503447d79af937496e9c132325522ee7
1,177,73,10,1,4,9999,203,503447d79af937496e9c132325522ee7
1,178,19,55,1,4,9999,206,503447d79af937496e9c132325522ee7
1,179,55,82,1,4,9999,109,503447d79af937496e9c132325522ee7
1,180,82,91,1,4,9999,130,503447d79af937496e9c132325522ee7
1,181,37,46,1,4,9999,230,503447d79af937496e9c132325522ee7
1,182,64,73,1,4,9999,122,503447d79af937496e9c132325522ee7
1,183,64,28,1,4,9999,176,503447d79af937496e9c132325522ee7
1,184,73,64,1,4,9999,17,503447d79af937496e9c132325522ee7
1,185,10,73,1,4,9999,10,503447d79af937496e9c132325522ee7
1,186,10,28,1,4,9999,30,503447d79af937496e9c132325522ee7
1,187,19,91,1,4,9999,34,503447d79af937496e9c132325522ee7
1,188,73,73,1,1,9999,128,503447d79af937496e9c132325522ee7
1,189,19,64,1,1,9999,522,503447d79af937496e9c132325522ee7
1,190,91,46,1,1,9999,250,503447d79af937496e9c132325522ee7
1,191,64,73,1,1,9999,35,503447d79af937496e9c132325522ee7
1,192,37,19,1,1,9999,234,503447d79af937496e9c132325522ee7
1,193,55,82,1,1,9999,137,503447d79af937496e9c132325522ee7
1,194,10,10,1,1,9999,12,503447d79af937496e9c132325522ee7
1,195,19,19,1,4,9999,264,503447d79af937496e9c132325522ee7
1,196,91,73,1,1,9999,42,503447d79af937496e9c132325522ee7
1,197,82,64,1,1,9999,86,503447d79af937496e9c132325522ee7
1,198,28,19,1,4,9999,95,503447d79af937496e9c132325522ee7
1,199,10,91,1,1,9999,144,503447d79af937496e9c132325522ee7
1,200,64,64,1,4,9999,1339,503447d79af937496e9c132325522ee7
1,201,64,91,1,3,9999,5,503447d79af937496e9c132325522ee7
1,202,73,55,1,4,9999,247,503447d79af937496e9c132325522ee7
1,203,28,73,1,4,9999,67,503447d79af937496e9c132325522ee7
1,204,28,10,1,4,9999,53,503447d79af937496e9c132325522ee7
1,205,91,28,1,1,9999,10,503447d79af937496e9c132325522ee7
1,206,55,28,1,1,9999,263,503447d79af937496e9c132325522ee7
1,207,28,28,1,4,9999,162,503447d79af937496e9c132325522ee7
1,208,46,19,1,4,9999,414,503447d79af937496e9c132325522ee7
1,209,73,10,1,4,9999,290,503447d79af937496e9c132325522ee7
1,210,28,37,1,4,9999,152,503447d79af937496e9c132325522ee7
1,211,46,10,1,4,9999,220,503447d79af937496e9c132325522ee7
1,212,46,10,1,4,9999,110,503447d79af937496e9c132325522ee7
1,213,46,55,1,4,9999,172,503447d79af937496e9c132325522ee7
1,214,28,64,1,4,9999,236,503447d79af937496e9c132325522ee7
1,215,73,28,1,4,9999,126,503447d79af937496e9c132325522ee7
1,216,82,19,1,4,9999,30,503447d79af937496e9c132325522ee7
1,217,10,46,1,4,9999,2727,503447d79af937496e9c132325522ee7
1,218,91,19,1,4,9999,4,503447d79af937496e9c132325522ee7
1,219,82,37,1,1,9999,17,503447d79af937496e9c132325522ee7
1,220,91,64,1,4,9999,32,503447d79af937496e9c132325522ee7
1,221,46,64,1,4,9999,260,503447d79af937496e9c132325522ee7
1,222,19,37,1,4,9999,158,503447d79af937496e9c132325522ee7
1,223,64,55,1,4,9999,50,503447d79af937496e9c132325522ee7
1,224,73,91,1,4,9999,100,503447d79af937496e9c132325522ee7
1,225,19,46,1,4,9999,49,503447d79af937496e9c132325522ee7
1,226,37,28,1,1,9999,46,503447d79af937496e9c132325522ee7
1,227,55,55,1,1,9999,743,503447d79af937496e9c132325522ee7
1,228,82,10,1,1,9999,937,503447d79af937496e9c132325522ee7
1,229,73,55,1,4,9999,497,503447d79af937496e9c132325522ee7
1,230,82,73,1,4,9999,569,503447d79af937496e9c132325522ee7
1,231,55,91,1,4,9999,582,503447d79af937496e9c132325522ee7
1,232,73,82,1,4,9999,516,503447d79af937496e9c132325522ee7
1,233,37,73,1,4,9999,554,503447d79af937496e9c132325522ee7
1,234,82,46,1,3,9999,852,503447d79af937496e9c132325522ee7
1,235,82,46,1,1,9999,655,503447d79af937496e9c132325522ee7
1,236,73,37,1,4,9999,276,503447d79af937496e9c132325522ee7
1,237,73,28,1,4,9999,557,503447d79af937496e9c132325522ee7
1,238,91,55,1,4,9999,342,503447d79af937496e9c132325522ee7
1,239,64,46,1,4,9999,313,503447d79af937496e9c132325522ee7
1,240,19,19,1,4,9999,216,503447d79af937496e9c132325522ee7
1,241,37,46,1,4,9999,235,503447d79af937496e9c132325522ee7
1,242,64,55,1,3,9999,177,503447d79af937496e9c132325522ee7
1,243,91,82,1,4,9999,344,503447d79af937496e9c132325522ee7
1,244,55,73,1,4,9999,286,503447d79af937496e9c132325522ee7
1,245,10,37,1,4,9999,287,503447d79af937496e9c132325522ee7
1,246,82,37,1,4,9999,359,503447d79af937496e9c132325522ee7
1,247,55,10,1,3,9999,273,503447d79af937496e9c132325522ee7
1,248,19,82,1,3,9999,425,503447d79af937496e9c132325522ee7
1,249,64,28,1,4,9999,286,503447d79af937496e9c132325522ee7
1,250,19,91,1,1,9999,822,503447d79af937496e9c132325522ee7
1,251,55,19,1,1,9999,393,503447d79af937496e9c132325522ee7
1,252,82,28,1,3,9999,892,503447d79af937496e9c132325522ee7
1,253,10,82,1,4,9999,637,503447d79af937496e9c132325522ee7
1,254,37,19,1,4,9999,2688,503447d79af937496e9c132325522ee7
1,255,46,46,1,4,9999,719,503447d79af937496e9c132325522ee7
1,256,73,10,1,3,9999,773,503447d79af937496e9c132325522ee7
1,257,64,64,1,3,9999,746,503447d79af937496e9c132325522ee7
1,258,37,19,1,3,9999,485,503447d79af937496e9c132325522ee7
1,259,46,64,1,3,9999,603,503447d79af937496e9c132325522ee7
1,260,82,37,1,4,9999,642,503447d79af937496e9c132325522ee7
1,261,82,19,1,4,9999,643,503447d79af937496e9c132325522ee7
1,262,91,28,1,4,9999,352,503447d79af937496e9c132325522ee7
1,263,64,73,1,4,9999,355,503447d79af937496e9c132325522ee7
1,264,19,82,1,4,9999,566,503447d79af937496e9c132325522ee7
1,265,28,73,1,4,9999,615,503447d79af937496e9c132325522ee7
1,266,64,19,1,4,9999,663,503447d79af937496e9c132325522ee7
1,267,19,91,1,4,9999,1725,503447d79af937496e9c132325522ee7
1,268,64,46,1,4,9999,1959,503447d79af937496e9c132325522ee7
1,269,55,10,1,4,9999,2333,503447d79af937496e9c132325522ee7
1,270,46,82,1,4,9999,4613,503447d79af937496e9c132325522ee7
1,271,91,64,1,4,9999,579,503447d79af937496e9c132325522ee7
1,272,73,73,1,4,9999,739,503447d79af937496e9c132325522ee7
1,273,28,91,1,3,9999,886,503447d79af937496e9c132325522ee7
1,274,91,64,1,4,9999,652,503447d79af937496e9c132325522ee7
1,275,55,55,1,4,9999,1622,503447d79af937496e9c132325522ee7
1,276,37,37,1,4,9999,1161,503447d79af937496e9c132325522ee7
1,277,64,37,1,4,9999,442,503447d79af937496e9c132325522ee7
1,278,46,37,1,3,9999,244,503447d79af937496e9c132325522ee7
1,279,64,37,1,3,9999,443,503447d79af937496e9c132325522ee7
1,280,82,73,1,3,9999,1058,503447d79af937496e9c132325522ee7
1,281,64,37,1,4,9999,652,503447d79af937496e9c132325522ee7
1,282,37,10,1,4,9999,280,503447d79af937496e9c132325522ee7
1,283,46,64,1,4,9999,189,503447d79af937496e9c132325522ee7
1,284,55,46,1,3,9999,312,503447d79af937496e9c132325522ee7
1,285,73,91,1,3,9999,638,503447d79af937496e9c132325522ee7
1,286,82,28,1,4,9999,1541,503447d79af937496e9c132325522ee7
1,287,55,46,1,4,9999,404,503447d79af937496e9c132325522ee7
1,288,28,28,1,4,9999,282,503447d79af937496e9c132325522ee7
1,289,10,64,1,3,9999,802,503447d79af937496e9c132325522ee7
1,290,46,91,1,2,9999,1232,503447d79af937496e9c132325522ee7
1,291,73,46,1,3,9999,908,503447d79af937496e9c132325522ee7
1,292,55,73,1,4,9999,336,503447d79af937496e9c132325522ee7
1,293,55,91,1,4,9999,293,503447d79af937496e9c132325522ee7
1,294,82,55,1,4,9999,286,503447d79af937496e9c132325522ee7
1,295,91,37,1,4,9999,244,503447d79af937496e9c132325522ee7
1,296,28,55,1,4,9999,1657,503447d79af937496e9c132325522ee7
1,297,46,73,1,4,9999,4306,503447d79af937496e9c132325522ee7
1,298,37,73,1,3,9999,317,503447d79af937496e9c132325522ee7
1,299,55,64,1,4,9999,711,503447d79af937496e9c132325522ee7
1,300,46,73,1,4,9999,21,503447d79af937496e9c132325522ee7
1,301,82,73,1,4,9999,252,503447d79af937496e9c132325522ee7
1,302,82,91,1,4,9999,251,503447d79af937496e9c132325522ee7
1,303,10,82,1,4,9999,338,503447d79af937496e9c132325522ee7
1,304,82,82,1,4,9999,262,503447d79af937496e9c132325522ee7
1,305,82,91,1,4,9999,129,503447d79af937496e9c132325522ee7
1,306,28,37,1,3,9999,256,503447d79af937496e9c132325522ee7
1,307,19,73,1,3,9999,539,503447d79af937496e9c132325522ee7
1,308,10,19,1,3,9999,904,503447d79af937496e9c132325522ee7
1,309,10,19,1,3,9999,620,503447d79af937496e9c132325522ee7
1,310,55,73,1,4,9999,1272,503447d79af937496e9c132325522ee7
1,311,64,82,1,4,9999,470,503447d79af937496e9c132325522ee7
1,312,82,10,1,1,9999,1270,503447d79af937496e9c132325522ee7
1,313,55,55,1,2,9999,360,503447d79af937496e9c132325522ee7
1,314,91,37,1,3,9999,704,503447d79af937496e9c132325522ee7
1,315,82,46,1,4,9999,425,503447d79af937496e9c132325522ee7
1,316,55,64,1,4,9999,139,503447d79af937496e9c132325522ee7
1,317,28,91,1,3,9999,503,503447d79af937496e9c132325522ee7
1,318,37,55,1,4,9999,205,503447d79af937496e9c132325522ee7
1,319,82,55,1,4,9999,611,503447d79af937496e9c132325522ee7
1,320,19,10,1,4,9999,1065,503447d79af937496e9c132325522ee7
1,321,55,55,1,2,9999,1738,503447d79af937496e9c132325522ee7
1,322,82,10,1,4,9999,1652,503447d79af937496e9c132325522ee7
1,323,91,46,1,4,9999,727,503447d79af937496e9c132325522ee7
1,324,91,73,1,4,9999,313,503447d79af937496e9c132325522ee7
1,325,37,46,1,3,9999,316,503447d79af937496e9c132325522ee7
1,326,64,10,1,3,9999,656,503447d79af937496e9c132325522ee7
1,327,10,10,1,4,9999,3296,503447d79af937496e9c132325522ee7
1,328,91,28,1,4,9999,2116,503447d79af937496e9c132325522ee7
1,329,19,10,1,3,9999,988,503447d79af937496e9c132325522ee7
1,330,73,73,1,3,9999,694,503447d79af937496e9c132325522ee7
1,331,73,55,1,4,9999,2083,503447d79af937496e9c132325522ee7
1,332,46,28,1,4,9999,1424,503447d79af937496e9c132325522ee7
1,333,28,19,1,3,9999,957,503447d79af937496e9c132325522ee7
1,334,37,64,1,3,9999,931,503447d79af937496e9c132325522ee7
1,335,91,37,1,4,9999,1004,503447d79af937496e9c132325522ee7
1,336,73,37,1,4,9999,2238,503447d79af937496e9c132325522ee7
1,337,91,46,1,4,9999,1218,503447d79af937496e9c132325522ee7
1,338,10,64,1,4,9999,911,503447d79af937496e9c132325522ee7
1,339,37,91,1,4,9999,991,503447d79af937496e9c132325522ee7
1,340,37,55,1,4,9999,2032,503447d79af937496e9c132325522ee7
1,341,10,64,1,3,9999,251,503447d79af937496e9c132325522ee7
1,342,19,55,1,3,9999,592,503447d79af937496e9c132325522ee7
1,343,55,37,1,3,9999,258,503447d79af937496e9c132325522ee7
1,344,82,37,1,3,9999,85,503447d79af937496e9c132325522ee7
1,345,55,37,1,4,9999,494,503447d79af937496e9c132325522ee7
1,346,28,46,1,3,9999,67,503447d79af937496e9c132325522ee7
1,347,64,28,1,4,9999,101,503447d79af937496e9c132325522ee7
1,348,46,19,1,2,9999,860,503447d79af937496e9c132325522ee7
1,349,28,19,1,2,9999,360,503447d79af937496e9c132325522ee7
1,350,46,82,1,3,9999,189,503447d79af937496e9c132325522ee7
1,351,19,73,1,4,9999,118,503447d79af937496e9c132325522ee7
1,352,19,10,1,4,9999,281,503447d79af937496e9c132325522ee7
1,353,10,10,1,4,9999,317,503447d79af937496e9c132325522ee7
1,354,37,10,1,3,9999,281,503447d79af937496e9c132325522ee7
1,355,91,10,1,1,9999,621,503447d79af937496e9c132325522ee7
1,356,28,91,1,2,9999,452,503447d79af937496e9c132325522ee7
1,357,46,55,1,3,9999,318,503447d79af937496e9c132325522ee7
1,358,37,28,1,3,9999,242,503447d79af937496e9c132325522ee7
1,359,73,91,1,4,9999,637,503447d79af937496e9c132325522ee7
1,360,10,64,1,4,9999,243,503447d79af937496e9c132325522ee7
1,361,91,46,1,3,9999,270,503447d79af937496e9c132325522ee7
1,362,73,19,1,3,9999,550,503447d79af937496e9c132325522ee7
1,363,28,64,1,3,9999,143,503447d79af937496e9c132325522ee7
1,364,82,64,1,3,9999,473,503447d79af937496e9c132325522ee7
1,365,73,73,1,2,9999,500,503447d79af937496e9c132325522ee7
1,366,19,19,1,3,9999,507,503447d79af937496e9c132325522ee7
1,367,10,73,1,3,9999,506,503447d79af937496e9c132325522ee7
1,368,91,91,1,4,9999,1712,503447d79af937496e9c132325522ee7
1,369,46,55,1,4,9999,2014,503447d79af937496e9c132325522ee7
1,370,64,64,1,4,9999,1039,503447d79af937496e9c132325522ee7
1,371,10,55,1,4,9999,695,503447d79af937496e9c132325522ee7
1,372,28,82,1,4,9999,1676,503447d79af937496e9c132325522ee7
1,373,10,37,1,4,9999,479,503447d79af937496e9c132325522ee7
1,374,46,37,1,4,9999,914,503447d79af937496e9c132325522ee7
1,375,91,19,1,4,9999,304,503447d79af937496e9c132325522ee7
1,376,46,28,1,3,9999,753,503447d79af937496e9c132325522ee7
1,377,64,73,1,4,9999,489,503447d79af937496e9c132325522ee7
1,378,82,82,1,3,9999,421,503447d79af937496e9c132325522ee7
1,379,10,19,1,3,9999,47,503447d79af937496e9c132325522ee7
1,380,19,19,1,3,9999,313,503447d79af937496e9c132325522ee7
1,381,37,46,1,3,9999,432,503447d79af937496e9c132325522ee7
1,382,10,82,1,2,9999,139,503447d79af937496e9c132325522ee7
1,383,55,10,1,4,9999,91,503447d79af937496e9c132325522ee7
1,384,10,19,1,4,9999,97,503447d79af937496e9c132325522ee7
1,385,64,10,1,4,9999,189,503447d79af937496e9c132325522ee7
1,386,19,28,1,4,9999,130,503447d79af937496e9c132325522ee7
1,387,10,91,1,2,9999,211,503447d79af937496e9c132325522ee7
1,388,10,10,1,2,9999,52,503447d79af937496e9c132325522ee7
1,389,28,82,1,1,9999,4,503447d79af937496e9c132325522ee7
1,390,37,82,1,2,9999,190,503447d79af937496e9c132325522ee7
1,391,64,37,1,4,9999,3143,503447d79af937496e9c132325522ee7
1,392,37,64,1,4,9999,140,503447d79af937496e9c132325522ee7
1,393,19,28,1,4,9999,911,503447d79af937496e9c132325522ee7
1,394,37,37,1,3,9999,1257,503447d79af937496e9c132325522ee7
1,395,19,64,1,4,9999,1261,503447d79af937496e9c132325522ee7
1,396,55,46,1,4,9999,2667,503447d79af937496e9c132325522ee7
1,397,82,82,1,3,9999,1042,503447d79af937496e9c132325522ee7
1,398,73,64,1,3,9999,178,503447d79af937496e9c132325522ee7
1,399,73,28,1,4,9999,98,503447d79af937496e9c132325522ee7
4,0,28,19,1,1,1,522,dc21b7b15e50f7fd90b3171c6c661421
4,1,37,19,1,2,0,947,dc21b7b15e50f7fd90b3171c6c661421
4,2,37,28,1,1,1,782,dc21b7b15e50f7fd90b3171c6c661421
4,3,46,64,2,2,1,1301,dc21b7b15e50f7fd90b3171c6c661421
4,4,82,64,4,2,0,1061,dc21b7b15e50f7fd90b3171c6c661421
4,5,82,46,3,3,1,1908,dc21b7b15e50f7fd90b3171c6c661421
4,6,19,19,1,1,1,1112,dc21b7b15e50f7fd90b3171c6c661421
4,7,73,19,3,3,1,1010,dc21b7b15e50f7fd90b3171c6c661421
4,8,73,37,3,3,1,1356,dc21b7b15e50f7fd90b3171c6c661421
4,9,91,64,4,4,1,1069,dc21b7b15e50f7fd90b3171c6c661421
4,10,55,91,4,2,0,1100,dc21b7b15e50f7fd90b3171c6c661421
4,11,73,91,4,4,1,1006,dc21b7b15e50f7fd90b3171c6c661421
4,12,82,28,3,3,1,1521,dc21b7b15e50f7fd90b3171c6c661421
4,13,19,73,2,2,1,888,dc21b7b15e50f7fd90b3171c6c661421
4,14,37,64,2,2,1,1364,dc21b7b15e50f7fd90b3171c6c661421
4,15,64,73,4,3,0,1246,dc21b7b15e50f7fd90b3171c6c661421
4,16,37,46,1,2,0,1046,dc21b7b15e50f7fd90b3171c6c661421
4,17,55,37,3,2,0,1127,dc21b7b15e50f7fd90b3171c6c661421
4,18,19,82,2,4,0,1329,dc21b7b15e50f7fd90b3171c6c661421
4,19,91,82,4,2,0,1788,dc21b7b15e50f7fd90b3171c6c661421
4,20,91,19,3,2,0,1285,dc21b7b15e50f7fd90b3171c6c661421
4,21,91,37,3,3,1,2490,dc21b7b15e50f7fd90b3171c6c661421
4,22,10,73,2,2,1,1555,dc21b7b15e50f7fd90b3171c6c661421
4,23,19,37,1,1,1,921,dc21b7b15e50f7fd90b3171c6c661421
4,24,64,10,3,4,0,1337,dc21b7b15e50f7fd90b3171c6c661421
4,25,46,82,2,3,0,1257,dc21b7b15e50f7fd90b3171c6c661421
4,26,19,10,1,1,1,840,dc21b7b15e50f7fd90b3171c6c661421
4,27,10,82,2,2,1,1117,dc21b7b15e50f7fd90b3171c6c661421
4,28,19,64,2,2,1,1108,dc21b7b15e50f7fd90b3171c6c661421
4,29,91,10,3,3,1,1042,dc21b7b15e50f7fd90b3171c6c661421
4,30,46,91,2,2,1,1390,dc21b7b15e50f7fd90b3171c6c661421
4,31,82,55,4,3,0,1143,dc21b7b15e50f7fd90b3171c6c661421
4,32,10,64,2,2,1,1053,dc21b7b15e50f7fd90b3171c6c661421
4,33,82,73,4,3,0,1056,dc21b7b15e50f7fd90b3171c6c661421
4,34,46,55,2,2,1,932,dc21b7b15e50f7fd90b3171c6c661421
4,35,28,55,2,2,1,823,dc21b7b15e50f7fd90b3171c6c661421
4,36,46,73,2,2,1,850,dc21b7b15e50f7fd90b3171c6c661421
4,37,46,46,1,2,0,878,dc21b7b15e50f7fd90b3171c6c661421
4,38,91,91,4,4,1,1220,dc21b7b15e50f7fd90b3171c6c661421
4,39,46,19,1,2,0,1282,dc21b7b15e50f7fd90b3171c6c661421
4,40,64,46,3,2,0,1269,dc21b7b15e50f7fd90b3171c6c661421
4,41,37,73,2,2,1,1063,dc21b7b15e50f7fd90b3171c6c661421
4,42,10,91,2,1,0,887,dc21b7b15e50f7fd90b3171c6c661421
4,43,82,91,4,4,1,1414,dc21b7b15e50f7fd90b3171c6c661421
4,44,28,10,1,1,1,1851,dc21b7b15e50f7fd90b3171c6c661421
4,45,55,46,3,3,1,1661,dc21b7b15e50f7fd90b3171c6c661421
4,46,10,19,1,1,1,1203,dc21b7b15e50f7fd90b3171c6c661421
4,47,55,28,3,3,1,1771,dc21b7b15e50f7fd90b3171c6c661421
4,48,73,28,3,4,0,1018,dc21b7b15e50f7fd90b3171c6c661421
4,49,64,91,4,4,1,1136,dc21b7b15e50f7fd90b3171c6c661421
4,50,46,10,1,1,1,1734,dc21b7b15e50f7fd90b3171c6c661421
4,51,64,28,3,3,1,1190,dc21b7b15e50f7fd90b3171c6c661421
4,52,82,37,3,4,0,997,dc21b7b15e50f7fd90b3171c6c661421
4,53,64,64,4,3,0,1213,dc21b7b15e50f7fd90b3171c6c661421
4,54,19,28,1,1,1,800,dc21b7b15e50f7fd90b3171c6c661421
4,55,46,28,1,1,1,1241,dc21b7b15e50f7fd90b3171c6c661421
4,56,73,82,4,4,1,1370,dc21b7b15e50f7fd90b3171c6c661421
4,57,82,10,3,3,1,994,dc21b7b15e50f7fd90b3171c6c661421
4,58,10,10,1,1,1,880,dc21b7b15e50f7fd90b3171c6c661421
4,59,64,37,3,2,0,1519,dc21b7b15e50f7fd90b3171c6c661421
4,60,37,37,1,2,0,929,dc21b7b15e50f7fd90b3171c6c661421
4,61,73,10,3,3,1,1115,dc21b7b15e50f7fd90b3171c6c661421
4,62,64,55,4,2,0,1782,dc21b7b15e50f7fd90b3171c6c661421
4,63,55,19,3,1,0,1642,dc21b7b15e50f7fd90b3171c6c661421
4,64,37,10,1,1,1,967,dc21b7b15e50f7fd90b3171c6c661421
4,65,28,73,2,2,1,1020,dc21b7b15e50f7fd90b3171c6c661421
4,66,64,82,4,3,0,2102,dc21b7b15e50f7fd90b3171c6c661421
4,67,28,46,1,2,0,1144,dc21b7b15e50f7fd90b3171c6c661421
4,68,46,37,1,1,1,1235,dc21b7b15e50f7fd90b3171c6c661421
4,69,28,64,2,2,1,1409,dc21b7b15e50f7fd90b3171c6c661421
4,70,10,55,2,2,1,1298,dc21b7b15e50f7fd90b3171c6c661421
4,71,55,55,4,3,0,1154,dc21b7b15e50f7fd90b3171c6c661421
4,72,10,46,1,2,0,1081,dc21b7b15e50f7fd90b3171c6c661421
4,73,28,28,1,1,1,966,dc21b7b15e50f7fd90b3171c6c661421
4,74,28,91,2,2,1,964,dc21b7b15e50f7fd90b3171c6c661421
4,75,19,55,2,2,1,2233,dc21b7b15e50f7fd90b3171c6c661421
4,76,10,28,1,1,1,1110,dc21b7b15e50f7fd90b3171c6c661421
4,77,73,55,4,3,0,1214,dc21b7b15e50f7fd90b3171c6c661421
4,78,91,46,3,4,0,1492,dc21b7b15e50f7fd90b3171c6c661421
4,79,73,64,4,3,0,1923,dc21b7b15e50f7fd90b3171c6c661421
4,80,28,37,1,1,1,1668,dc21b7b15e50f7fd90b3171c6c661421
4,81,10,37,1,1,1,1039,dc21b7b15e50f7fd90b3171c6c661421
4,82,73,46,3,3,1,1752,dc21b7b15e50f7fd90b3171c6c661421
4,83,91,28,3,4,0,1077,dc21b7b15e50f7fd90b3171c6c661421
4,84,55,10,3,1,0,2031,dc21b7b15e50f7fd90b3171c6c661421
4,85,19,91,2,2,1,1173,dc21b7b15e50f7fd90b3171c6c661421
4,86,64,19,3,3,1,2263,dc21b7b15e50f7fd90b3171c6c661421
4,87,82,19,3,4,0,1309,dc21b7b15e50f7fd90b3171c6c661421
4,88,55,73,4,2,0,1193,dc21b7b15e50f7fd90b3171c6c661421
4,89,37,91,2,4,0,1362,dc21b7b15e50f7fd90b3171c6c661421
4,90,82,82,4,4,1,1201,dc21b7b15e50f7fd90b3171c6c661421
4,91,91,73,4,3,0,1326,dc21b7b15e50f7fd90b3171c6c661421
4,92,73,73,4,4,1,1289,dc21b7b15e50f7fd90b3171c6c661421
4,93,55,82,4,3,0,1215,dc21b7b15e50f7fd90b3171c6c661421
4,94,19,46,1,2,0,1471,dc21b7b15e50f7fd90b3171c6c661421
4,95,91,55,4,4,1,3715,dc21b7b15e50f7fd90b3171c6c661421
4,96,55,64,4,3,0,1194,dc21b7b15e50f7fd90b3171c6c661421
4,97,37,82,2,2,1,1679,dc21b7b15e50f7fd90b3171c6c661421
4,98,28,82,2,2,1,1066,dc21b7b15e50f7fd90b3171c6c661421
4,99,37,55,2,2,1,1614,dc21b7b15e50f7fd90b3171c6c661421
4,100,10,19,1,1,1,716,dc21b7b15e50f7fd90b3171c6c661421
4,101,10,64,2,2,1,759,dc21b7b15e50f7fd90b3171c6c661421
4,102,37,91,2,3,0,1009,dc21b7b15e50f7fd90b3171c6c661421
4,103,73,46,3,3,1,1002,dc21b7b15e50f7fd90b3171c6c661421
4,104,10,91,2,2,1,944,dc21b7b15e50f7fd90b3171c6c661421
4,105,28,37,1,1,1,1050,dc21b7b15e50f7fd90b3171c6c661421
4,106,37,82,2,2,1,769,dc21b7b15e50f7fd90b3171c6c661421
4,107,28,28,1,1,1,930,dc21b7b15e50f7fd90b3171c6c661421
4,108,37,73,2,2,1,879,dc21b7b15e50f7fd90b3171c6c661421
4,109,46,82,2,4,0,1464,dc21b7b15e50f7fd90b3171c6c661421
4,110,82,73,4,3,0,1154,dc21b7b15e50f7fd90b3171c6c661421
4,111,19,82,2,2,1,1023,dc21b7b15e50f7fd90b3171c6c661421
4,112,82,10,3,3,1,1064,dc21b7b15e50f7fd90b3171c6c661421
4,113,73,37,3,3,1,1062,dc21b7b15e50f7fd90b3171c6c661421
4,114,28,82,2,2,1,1212,dc21b7b15e50f7fd90b3171c6c661421
4,115,37,19,1,1,1,1187,dc21b7b15e50f7fd90b3171c6c661421
4,116,55,46,3,1,0,1397,dc21b7b15e50f7fd90b3171c6c661421
4,117,19,73,2,2,1,1587,dc21b7b15e50f7fd90b3171c6c661421
4,118,91,82,4,4,1,971,dc21b7b15e50f7fd90b3171c6c661421
4,119,37,55,2,2,1,2105,dc21b7b15e50f7fd90b3171c6c661421
4,120,64,73,4,3,0,1370,dc21b7b15e50f7fd90b3171c6c661421
4,121,82,91,4,4,1,926,dc21b7b15e50f7fd90b3171c6c661421
4,122,64,28,3,3,1,2150,dc21b7b15e50f7fd90b3171c6c661421
4,123,46,46,1,3,0,1563,dc21b7b15e50f7fd90b3171c6c661421
4,124,19,37,1,1,1,907,dc21b7b15e50f7fd90b3171c6c661421
4,125,46,28,1,1,1,1345,dc21b7b15e50f7fd90b3171c6c661421
4,126,82,37,3,3,1,1011,dc21b7b15e50f7fd90b3171c6c661421
4,127,19,91,2,2,1,910,dc21b7b15e50f7fd90b3171c6c661421
4,128,64,55,4,3,0,940,dc21b7b15e50f7fd90b3171c6c661421
4,129,55,28,3,3,1,2980,dc21b7b15e50f7fd90b3171c6c661421
4,130,37,10,1,3,0,1068,dc21b7b15e50f7fd90b3171c6c661421
4,131,19,19,1,1,1,1038,dc21b7b15e50f7fd90b3171c6c661421
4,132,19,28,1,1,1,1288,dc21b7b15e50f7fd90b3171c6c661421
4,133,73,73,4,4,1,1153,dc21b7b15e50f7fd90b3171c6c661421
4,134,55,82,4,4,1,1049,dc21b7b15e50f7fd90b3171c6c661421
4,135,37,37,1,3,0,1369,dc21b7b15e50f7fd90b3171c6c661421
4,136,91,46,3,3,1,1224,dc21b7b15e50f7fd90b3171c6c661421
4,137,73,55,4,3,0,1027,dc21b7b15e50f7fd90b3171c6c661421
4,138,28,19,1,1,1,1045,dc21b7b15e50f7fd90b3171c6c661421
4,139,28,64,2,2,1,1819,dc21b7b15e50f7fd90b3171c6c661421
4,140,73,10,3,3,1,2149,dc21b7b15e50f7fd90b3171c6c661421
4,141,82,64,4,4,1,1249,dc21b7b15e50f7fd90b3171c6c661421
4,142,55,91,4,4,1,1063,dc21b7b15e50f7fd90b3171c6c661421
4,143,91,73,4,4,1,994,dc21b7b15e50f7fd90b3171c6c661421
4,144,82,55,4,4,1,1329,dc21b7b15e50f7fd90b3171c6c661421
4,145,55,19,3,3,1,1009,dc21b7b15e50f7fd90b3171c6c661421
4,146,64,19,3,3,1,762,dc21b7b15e50f7fd90b3171c6c661421
4,147,10,82,2,2,1,1053,dc21b7b15e50f7fd90b3171c6c661421
4,148,64,10,3,3,1,1101,dc21b7b15e50f7fd90b3171c6c661421
4,149,46,64,2,4,0,1274,dc21b7b15e50f7fd90b3171c6c661421
4,150,10,73,2,2,1,1029,dc21b7b15e50f7fd90b3171c6c661421
4,151,55,55,4,3,0,1738,dc21b7b15e50f7fd90b3171c6c661421
4,152,64,64,4,4,1,2074,dc21b7b15e50f7fd90b3171c6c661421
4,153,82,19,3,3,1,1070,dc21b7b15e50f7fd90b3171c6c661421
4,154,73,91,4,4,1,984,dc21b7b15e50f7fd90b3171c6c661421
4,155,28,10,1,1,1,1003,dc21b7b15e50f7fd90b3171c6c661421
4,156,37,46,1,1,1,1524,dc21b7b15e50f7fd90b3171c6c661421
4,157,10,10,1,1,1,804,dc21b7b15e50f7fd90b3171c6c661421
4,158,91,10,3,3,1,1121,dc21b7b15e50f7fd90b3171c6c661421
4,159,64,91,4,4,1,853,dc21b7b15e50f7fd90b3171c6c661421
4,160,10,28,1,3,0,1259,dc21b7b15e50f7fd90b3171c6c661421
4,161,64,46,3,3,1,1197,dc21b7b15e50f7fd90b3171c6c661421
4,162,46,10,1,3,0,1478,dc21b7b15e50f7fd90b3171c6c661421
4,163,73,64,4,4,1,1016,dc21b7b15e50f7fd90b3171c6c661421
4,164,19,64,2,2,1,957,dc21b7b15e50f7fd90b3171c6c661421
4,165,73,19,3,3,1,1844,dc21b7b15e50f7fd90b3171c6c661421
4,166,19,55,2,2,1,1073,dc21b7b15e50f7fd90b3171c6c661421
