n_categories,session,trial_id,x1_true,x2_true,x1_response,x2_response,rt,Sex,participant_id,stim_id
1,1,0,46,64,57,66,3610,Male,c9a8ce1f5cccf9534266c706b538c6ca,47
1,1,1,46,73,54,60,4588,Male,c9a8ce1f5cccf9534266c706b538c6ca,48
1,1,2,19,10,19,15,7308,Male,c9a8ce1f5cccf9534266c706b538c6ca,11
1,1,3,82,10,86,29,4594,Male,c9a8ce1f5cccf9534266c706b538c6ca,81
1,1,4,82,91,55,95,4511,Male,c9a8ce1f5cccf9534266c706b538c6ca,90
1,1,5,37,91,50,100,3619,Male,c9a8ce1f5cccf9534266c706b538c6ca,40
1,1,6,82,37,71,50,3444,Male,c9a8ce1f5cccf9534266c706b538c6ca,84
1,1,7,19,28,12,92,5958,Male,c9a8ce1f5cccf9534266c706b538c6ca,13
1,1,8,91,46,98,41,5031,Male,c9a8ce1f5cccf9534266c706b538c6ca,95
1,1,9,91,37,96,29,6041,Male,c9a8ce1f5cccf9534266c706b538c6ca,94
1,1,10,46,55,54,69,4910,Male,c9a8ce1f5cccf9534266c706b538c6ca,46
1,1,11,28,82,24,71,5320,Male,c9a8ce1f5cccf9534266c706b538c6ca,29
1,1,12,91,82,88,89,8677,Male,c9a8ce1f5cccf9534266c706b538c6ca,99
1,1,13,55,37,77,32,4752,Male,c9a8ce1f5cccf9534266c706b538c6ca,54
1,1,14,19,19,16,24,4849,Male,c9a8ce1f5cccf9534266c706b538c6ca,12
1,1,15,28,91,20,91,3744,Male,c9a8ce1f5cccf9534266c706b538c6ca,30
1,1,16,64,46,42,32,11529,Male,c9a8ce1f5cccf9534266c706b538c6ca,65
1,1,17,37,82,36,80,4404,Male,c9a8ce1f5cccf9534266c706b538c6ca,39
1,1,18,64,37,50,44,2676,Male,c9a8ce1f5cccf9534266c706b538c6ca,64
1,1,19,37,10,50,10,3561,Male,c9a8ce1f5cccf9534266c706b538c6ca,31
1,1,20,55,82,29,84,5108,Male,c9a8ce1f5cccf9534266c706b538c6ca,59
1,1,21,82,28,23,32,5162,Male,c9a8ce1f5cccf9534266c706b538c6ca,83
1,1,22,28,73,30,82,3772,Male,c9a8ce1f5cccf9534266c706b538c6ca,28
1,1,23,55,73,50,81,4196,Male,c9a8ce1f5cccf9534266c706b538c6ca,58
1,1,24,55,91,50,72,3948,Male,c9a8ce1f5cccf9534266c706b538c6ca,60
1,1,25,64,64,75,61,5520,Male,c9a8ce1f5cccf9534266c706b538c6ca,67
1,1,26,55,55,66,55,4408,Male,c9a8ce1f5cccf9534266c706b538c6ca,56
1,1,27,28,46,29,39,3621,Male,c9a8ce1f5cccf9534266c706b538c6ca,25
1,1,28,10,46,19,32,5801,Male,c9a8ce1f5cccf9534266c706b538c6ca,5
1,1,29,37,64,50,50,3298,Male,c9a8ce1f5cccf9534266c706b538c6ca,37
1,1,30,82,82,91,87,4820,Male,c9a8ce1f5cccf9534266c706b538c6ca,89
1,1,31,91,73,90,79,4106,Male,c9a8ce1f5cccf9534266c706b538c6ca,98
1,1,32,64,55,68,67,4194,Male,c9a8ce1f5cccf9534266c706b538c6ca,66
1,1,33,73,64,77,67,3031,Male,c9a8ce1f5cccf9534266c706b538c6ca,77
1,1,34,37,28,50,28,6423,Male,c9a8ce1f5cccf9534266c706b538c6ca,33
1,1,35,10,10,18,19,3786,Male,c9a8ce1f5cccf9534266c706b538c6ca,1
1,1,36,82,19,75,17,5718,Male,c9a8ce1f5cccf9534266c706b538c6ca,82
1,1,37,91,19,88,19,3329,Male,c9a8ce1f5cccf9534266c706b538c6ca,92
1,1,38,91,55,72,74,5672,Male,c9a8ce1f5cccf9534266c706b538c6ca,96
1,1,39,37,73,22,65,4281,Male,c9a8ce1f5cccf9534266c706b538c6ca,38
1,1,40,64,82,41,79,3747,Male,c9a8ce1f5cccf9534266c706b538c6ca,69
1,1,41,73,55,71,31,3604,Male,c9a8ce1f5cccf9534266c706b538c6ca,76
1,1,42,55,19,54,50,8745,Male,c9a8ce1f5cccf9534266c706b538c6ca,52
1,1,43,19,55,22,58,3550,Male,c9a8ce1f5cccf9534266c706b538c6ca,16
1,1,44,73,82,38,50,3715,Male,c9a8ce1f5cccf9534266c706b538c6ca,79
1,1,45,55,46,50,50,1610,Male,c9a8ce1f5cccf9534266c706b538c6ca,55
1,1,46,64,73,68,70,4250,Male,c9a8ce1f5cccf9534266c706b538c6ca,68
1,1,47,28,64,62,30,10115,Male,c9a8ce1f5cccf9534266c706b538c6ca,27
1,1,48,19,37,20,36,4388,Male,c9a8ce1f5cccf9534266c706b538c6ca,14
1,1,49,10,82,14,78,4788,Male,c9a8ce1f5cccf9534266c706b538c6ca,9
1,1,50,64,91,50,91,4368,Male,c9a8ce1f5cccf9534266c706b538c6ca,70
1,1,51,28,37,37,23,4835,Male,c9a8ce1f5cccf9534266c706b538c6ca,24
1,1,52,28,55,26,65,4970,Male,c9a8ce1f5cccf9534266c706b538c6ca,26
1,1,53,55,64,23,50,3286,Male,c9a8ce1f5cccf9534266c706b538c6ca,57
1,1,54,19,46,17,38,3452,Male,c9a8ce1f5cccf9534266c706b538c6ca,15
1,1,55,64,28,50,50,3206,Male,c9a8ce1f5cccf9534266c706b538c6ca,63
1,1,56,46,91,50,92,3342,Male,c9a8ce1f5cccf9534266c706b538c6ca,50
1,1,57,91,28,90,26,3264,Male,c9a8ce1f5cccf9534266c706b538c6ca,93
1,1,58,64,19,65,24,4214,Male,c9a8ce1f5cccf9534266c706b538c6ca,62
1,1,59,46,46,50,35,3346,Male,c9a8ce1f5cccf9534266c706b538c6ca,45
1,1,60,10,91,16,69,5869,Male,c9a8ce1f5cccf9534266c706b538c6ca,10
1,1,61,91,64,88,29,3638,Male,c9a8ce1f5cccf9534266c706b538c6ca,97
1,1,62,10,37,5,36,4371,Male,c9a8ce1f5cccf9534266c706b538c6ca,4
1,1,63,73,28,73,34,3337,Male,c9a8ce1f5cccf9534266c706b538c6ca,73
1,1,64,46,19,27,33,3807,Male,c9a8ce1f5cccf9534266c706b538c6ca,42
1,1,65,73,37,68,32,4239,Male,c9a8ce1f5cccf9534266c706b538c6ca,74
1,1,66,10,55,14,36,3825,Male,c9a8ce1f5cccf9534266c706b538c6ca,6
1,1,67,73,73,61,53,3737,Male,c9a8ce1f5cccf9534266c706b538c6ca,78
1,1,68,46,82,65,88,3093,Male,c9a8ce1f5cccf9534266c706b538c6ca,49
1,1,69,55,28,65,32,2881,Male,c9a8ce1f5cccf9534266c706b538c6ca,53
1,1,70,73,46,71,32,4128,Male,c9a8ce1f5cccf9534266c706b538c6ca,75
1,1,71,19,91,14,83,5587,Male,c9a8ce1f5cccf9534266c706b538c6ca,20
1,1,72,73,91,82,75,5368,Male,c9a8ce1f5cccf9534266c706b538c6ca,80
1,1,73,10,19,14,36,5905,Male,c9a8ce1f5cccf9534266c706b538c6ca,2
1,1,74,37,46,34,33,4006,Male,c9a8ce1f5cccf9534266c706b538c6ca,35
1,1,75,10,28,24,31,3452,Male,c9a8ce1f5cccf9534266c706b538c6ca,3
1,1,76,73,19,67,22,6980,Male,c9a8ce1f5cccf9534266c706b538c6ca,72
1,1,77,28,28,50,50,12442,Male,c9a8ce1f5cccf9534266c706b538c6ca,23
1,1,78,91,10,92,18,3957,Male,c9a8ce1f5cccf9534266c706b538c6ca,91
1,1,79,64,10,56,39,4640,Male,c9a8ce1f5cccf9534266c706b538c6ca,61
1,1,80,10,73,16,29,6276,Male,c9a8ce1f5cccf9534266c706b538c6ca,8
1,1,81,46,28,50,50,19813,Male,c9a8ce1f5cccf9534266c706b538c6ca,43
1,1,82,82,73,75,24,4304,Male,c9a8ce1f5cccf9534266c706b538c6ca,88
1,1,83,28,19,16,28,3988,Male,c9a8ce1f5cccf9534266c706b538c6ca,22
1,1,84,19,73,16,78,2628,Male,c9a8ce1f5cccf9534266c706b538c6ca,18
1,1,85,82,46,85,19,4660,Male,c9a8ce1f5cccf9534266c706b538c6ca,85
1,1,86,82,55,78,40,3226,Male,c9a8ce1f5cccf9534266c706b538c6ca,86
1,1,87,10,64,17,31,5504,Male,c9a8ce1f5cccf9534266c706b538c6ca,7
1,1,88,46,37,79,26,8011,Male,c9a8ce1f5cccf9534266c706b538c6ca,44
1,1,89,37,19,30,40,3021,Male,c9a8ce1f5cccf9534266c706b538c6ca,32
1,1,90,55,10,50,23,1399,Male,c9a8ce1f5cccf9534266c706b538c6ca,51
1,1,91,28,10,22,65,41625,Male,c9a8ce1f5cccf9534266c706b538c6ca,21
1,1,92,19,82,11,50,1862,Male,c9a8ce1f5cccf9534266c706b538c6ca,19
1,1,93,37,37,35,44,3291,Male,c9a8ce1f5cccf9534266c706b538c6ca,34
1,1,94,91,91,88,82,5225,Male,c9a8ce1f5cccf9534266c706b538c6ca,100
1,1,95,37,55,50,67,1346,Male,c9a8ce1f5cccf9534266c706b538c6ca,36
1,1,96,73,10,50,31,1488,Male,c9a8ce1f5cccf9534266c706b538c6ca,71
1,1,97,82,64,72,62,2671,Male,c9a8ce1f5cccf9534266c706b538c6ca,87
1,1,98,46,10,50,25,2950,Male,c9a8ce1f5cccf9534266c706b538c6ca,41
1,1,99,19,64,13,75,3068,Male,c9a8ce1f5cccf9534266c706b538c6ca,17
1,2,0,37,10,59,24,5542,Male,c9a8ce1f5cccf9534266c706b538c6ca,31
1,2,1,19,64,31,73,2822,Male,c9a8ce1f5cccf9534266c706b538c6ca,17
1,2,2,28,55,50,38,1606,Male,c9a8ce1f5cccf9534266c706b538c6ca,26
1,2,3,37,55,41,60,2583,Male,c9a8ce1f5cccf9534266c706b538c6ca,36
1,2,4,91,28,88,34,2482,Male,c9a8ce1f5cccf9534266c706b538c6ca,93
1,2,5,10,73,16,70,4132,Male,c9a8ce1f5cccf9534266c706b538c6ca,8
1,2,6,55,73,42,84,2345,Male,c9a8ce1f5cccf9534266c706b538c6ca,58
1,2,7,55,55,36,66,3731,Male,c9a8ce1f5cccf9534266c706b538c6ca,56
1,2,8,19,28,50,34,2491,Male,c9a8ce1f5cccf9534266c706b538c6ca,13
1,2,9,10,55,18,50,2433,Male,c9a8ce1f5cccf9534266c706b538c6ca,6
1,2,10,37,28,21,50,3197,Male,c9a8ce1f5cccf9534266c706b538c6ca,33
1,2,11,46,73,38,78,3198,Male,c9a8ce1f5cccf9534266c706b538c6ca,48
1,2,12,46,46,50,64,16204,Male,c9a8ce1f5cccf9534266c706b538c6ca,45
1,2,13,91,19,50,50,728,Male,c9a8ce1f5cccf9534266c706b538c6ca,92
1,2,14,73,10,86,17,3642,Male,c9a8ce1f5cccf9534266c706b538c6ca,71
1,2,15,28,19,23,20,2924,Male,c9a8ce1f5cccf9534266c706b538c6ca,22
1,2,16,46,37,21,25,4256,Male,c9a8ce1f5cccf9534266c706b538c6ca,44
1,2,17,37,73,36,74,3094,Male,c9a8ce1f5cccf9534266c706b538c6ca,38
1,2,18,64,64,40,77,2643,Male,c9a8ce1f5cccf9534266c706b538c6ca,67
1,2,19,19,73,25,69,2450,Male,c9a8ce1f5cccf9534266c706b538c6ca,18
1,2,20,37,64,29,72,4536,Male,c9a8ce1f5cccf9534266c706b538c6ca,37
1,2,21,64,28,79,29,2984,Male,c9a8ce1f5cccf9534266c706b538c6ca,63
1,2,22,28,37,30,69,3063,Male,c9a8ce1f5cccf9534266c706b538c6ca,24
1,2,23,82,91,85,85,5732,Male,c9a8ce1f5cccf9534266c706b538c6ca,90
1,2,24,19,19,17,55,4047,Male,c9a8ce1f5cccf9534266c706b538c6ca,12
1,2,25,19,46,22,64,3027,Male,c9a8ce1f5cccf9534266c706b538c6ca,15
1,2,26,19,91,29,87,2974,Male,c9a8ce1f5cccf9534266c706b538c6ca,20
1,2,27,10,64,23,72,2906,Male,c9a8ce1f5cccf9534266c706b538c6ca,7
1,2,28,82,46,25,73,2574,Male,c9a8ce1f5cccf9534266c706b538c6ca,85
1,2,29,37,82,26,89,2244,Male,c9a8ce1f5cccf9534266c706b538c6ca,39
1,2,30,46,64,37,66,2582,Male,c9a8ce1f5cccf9534266c706b538c6ca,47
1,2,31,82,37,85,34,2893,Male,c9a8ce1f5cccf9534266c706b538c6ca,84
1,2,32,28,91,27,83,2990,Male,c9a8ce1f5cccf9534266c706b538c6ca,30
1,2,33,64,46,25,38,2658,Male,c9a8ce1f5cccf9534266c706b538c6ca,65
1,2,34,55,10,23,15,2134,Male,c9a8ce1f5cccf9534266c706b538c6ca,51
1,2,35,82,64,50,50,1388,Male,c9a8ce1f5cccf9534266c706b538c6ca,87
1,2,36,55,37,50,31,1797,Male,c9a8ce1f5cccf9534266c706b538c6ca,54
1,2,37,91,37,89,28,2976,Male,c9a8ce1f5cccf9534266c706b538c6ca,94
1,2,38,10,10,1,19,4212,Male,c9a8ce1f5cccf9534266c706b538c6ca,1
1,2,39,73,37,50,31,1890,Male,c9a8ce1f5cccf9534266c706b538c6ca,74
1,2,40,46,19,50,21,2379,Male,c9a8ce1f5cccf9534266c706b538c6ca,42
1,2,41,28,46,50,50,1554,Male,c9a8ce1f5cccf9534266c706b538c6ca,25
1,2,42,37,46,31,34,2165,Male,c9a8ce1f5cccf9534266c706b538c6ca,35
1,2,43,73,19,50,17,1948,Male,c9a8ce1f5cccf9534266c706b538c6ca,72
1,2,44,73,55,43,30,2246,Male,c9a8ce1f5cccf9534266c706b538c6ca,76
1,2,45,64,82,35,85,2629,Male,c9a8ce1f5cccf9534266c706b538c6ca,69
1,2,46,73,28,50,31,1869,Male,c9a8ce1f5cccf9534266c706b538c6ca,73
1,2,47,10,46,21,55,3857,Male,c9a8ce1f5cccf9534266c706b538c6ca,5
1,2,48,10,91,5,90,4017,Male,c9a8ce1f5cccf9534266c706b538c6ca,10
1,2,49,46,55,36,59,1987,Male,c9a8ce1f5cccf9534266c706b538c6ca,46
1,2,50,82,82,74,50,2656,Male,c9a8ce1f5cccf9534266c706b538c6ca,89
1,2,51,82,73,74,67,3726,Male,c9a8ce1f5cccf9534266c706b538c6ca,88
1,2,52,55,82,67,70,2738,Male,c9a8ce1f5cccf9534266c706b538c6ca,59
1,2,53,64,91,71,74,2196,Male,c9a8ce1f5cccf9534266c706b538c6ca,70
1,2,54,91,55,83,70,3596,Male,c9a8ce1f5cccf9534266c706b538c6ca,96
1,2,55,64,55,82,78,3675,Male,c9a8ce1f5cccf9534266c706b538c6ca,66
1,2,56,91,64,74,58,3254,Male,c9a8ce1f5cccf9534266c706b538c6ca,97
1,2,57,55,46,68,55,3103,Male,c9a8ce1f5cccf9534266c706b538c6ca,55
1,2,58,28,64,21,43,3000,Male,c9a8ce1f5cccf9534266c706b538c6ca,27
1,2,59,73,82,50,80,2203,Male,c9a8ce1f5cccf9534266c706b538c6ca,79
1,2,60,55,64,66,62,4595,Male,c9a8ce1f5cccf9534266c706b538c6ca,57
1,2,61,19,82,31,84,2238,Male,c9a8ce1f5cccf9534266c706b538c6ca,19
1,2,62,91,73,97,57,5131,Male,c9a8ce1f5cccf9534266c706b538c6ca,98
1,2,63,10,37,3,34,3502,Male,c9a8ce1f5cccf9534266c706b538c6ca,4
1,2,64,73,64,50,36,1195,Male,c9a8ce1f5cccf9534266c706b538c6ca,77
1,2,65,28,10,37,11,2275,Male,c9a8ce1f5cccf9534266c706b538c6ca,21
1,2,66,28,28,60,25,2186,Male,c9a8ce1f5cccf9534266c706b538c6ca,23
1,2,67,73,91,78,78,4227,Male,c9a8ce1f5cccf9534266c706b538c6ca,80
1,2,68,64,19,61,21,3074,Male,c9a8ce1f5cccf9534266c706b538c6ca,62
1,2,69,91,91,83,92,5795,Male,c9a8ce1f5cccf9534266c706b538c6ca,100
1,2,70,82,28,50,32,1271,Male,c9a8ce1f5cccf9534266c706b538c6ca,83
1,2,71,46,10,40,33,3463,Male,c9a8ce1f5cccf9534266c706b538c6ca,41
1,2,72,46,28,50,34,1828,Male,c9a8ce1f5cccf9534266c706b538c6ca,43
1,2,73,10,82,16,32,3186,Male,c9a8ce1f5cccf9534266c706b538c6ca,9
1,2,74,46,82,38,84,2542,Male,c9a8ce1f5cccf9534266c706b538c6ca,49
1,2,75,19,37,63,36,3246,Male,c9a8ce1f5cccf9534266c706b538c6ca,14
1,2,76,37,19,35,35,2645,Male,c9a8ce1f5cccf9534266c706b538c6ca,32
1,2,77,55,19,50,35,1610,Male,c9a8ce1f5cccf9534266c706b538c6ca,52
1,2,78,55,91,50,86,2020,Male,c9a8ce1f5cccf9534266c706b538c6ca,60
1,2,79,46,91,50,87,1489,Male,c9a8ce1f5cccf9534266c706b538c6ca,50
1,2,80,37,91,50,92,1781,Male,c9a8ce1f5cccf9534266c706b538c6ca,40
1,2,81,28,82,50,88,2740,Male,c9a8ce1f5cccf9534266c706b538c6ca,29
1,2,82,37,37,50,35,1290,Male,c9a8ce1f5cccf9534266c706b538c6ca,34
1,2,83,91,46,84,56,4087,Male,c9a8ce1f5cccf9534266c706b538c6ca,95
1,2,84,91,10,100,10,3639,Male,c9a8ce1f5cccf9534266c706b538c6ca,91
1,2,85,82,55,81,36,2287,Male,c9a8ce1f5cccf9534266c706b538c6ca,86
1,2,86,73,46,83,50,1920,Male,c9a8ce1f5cccf9534266c706b538c6ca,75
1,2,87,19,55,19,39,3224,Male,c9a8ce1f5cccf9534266c706b538c6ca,16
1,2,88,19,10,10,27,2394,Male,c9a8ce1f5cccf9534266c706b538c6ca,11
1,2,89,10,19,3,31,3796,Male,c9a8ce1f5cccf9534266c706b538c6ca,2
1,2,90,10,28,8,28,3132,Male,c9a8ce1f5cccf9534266c706b538c6ca,3
1,2,91,64,73,87,25,2777,Male,c9a8ce1f5cccf9534266c706b538c6ca,68
1,2,92,64,10,69,23,2982,Male,c9a8ce1f5cccf9534266c706b538c6ca,61
1,2,93,55,28,50,36,1238,Male,c9a8ce1f5cccf9534266c706b538c6ca,53
1,2,94,91,82,78,40,4976,Male,c9a8ce1f5cccf9534266c706b538c6ca,99
1,2,95,28,73,36,89,3108,Male,c9a8ce1f5cccf9534266c706b538c6ca,28
1,2,96,64,37,69,59,3357,Male,c9a8ce1f5cccf9534266c706b538c6ca,64
1,2,97,82,10,78,57,5037,Male,c9a8ce1f5cccf9534266c706b538c6ca,81
1,2,98,82,19,79,24,3599,Male,c9a8ce1f5cccf9534266c706b538c6ca,82
1,2,99,73,73,64,71,4455,Male,c9a8ce1f5cccf9534266c706b538c6ca,78
1,1,0,19,46,25,33,9770,Female,6c4965b94b21b3df637ec2c327461032,15
1,1,1,10,46,30,63,7057,Female,6c4965b94b21b3df637ec2c327461032,5
1,1,2,28,91,31,84,12398,Female,6c4965b94b21b3df637ec2c327461032,30
1,1,3,91,37,93,36,10134,Female,6c4965b94b21b3df637ec2c327461032,94
1,1,4,19,19,17,22,7072,Female,6c4965b94b21b3df637ec2c327461032,12
1,1,5,73,73,75,70,10054,Female,6c4965b94b21b3df637ec2c327461032,78
1,1,6,73,28,74,32,7803,Female,6c4965b94b21b3df637ec2c327461032,73
1,1,7,64,82,70,23,7891,Female,6c4965b94b21b3df637ec2c327461032,69
1,1,8,19,28,29,26,5328,Female,6c4965b94b21b3df637ec2c327461032,13
1,1,9,19,91,18,86,8086,Female,6c4965b94b21b3df637ec2c327461032,20
1,1,10,55,19,82,13,9221,Female,6c4965b94b21b3df637ec2c327461032,52
1,1,11,10,28,13,19,10657,Female,6c4965b94b21b3df637ec2c327461032,3
1,1,12,19,55,25,44,6969,Female,6c4965b94b21b3df637ec2c327461032,16
1,1,13,91,64,77,67,11552,Female,6c4965b94b21b3df637ec2c327461032,97
1,1,14,46,55,57,46,8630,Female,6c4965b94b21b3df637ec2c327461032,46
1,1,15,37,10,33,16,11178,Female,6c4965b94b21b3df637ec2c327461032,31
1,1,16,55,28,50,26,5741,Female,6c4965b94b21b3df637ec2c327461032,53
1,1,17,28,10,27,9,8995,Female,6c4965b94b21b3df637ec2c327461032,21
1,1,18,10,10,26,18,11570,Female,6c4965b94b21b3df637ec2c327461032,1
1,1,19,10,91,36,35,6819,Female,6c4965b94b21b3df637ec2c327461032,10
1,1,20,73,64,73,70,7120,Female,6c4965b94b21b3df637ec2c327461032,77
1,1,21,82,64,86,73,7460,Female,6c4965b94b21b3df637ec2c327461032,87
1,1,22,37,64,54,75,5898,Female,6c4965b94b21b3df637ec2c327461032,37
1,1,23,64,73,59,70,5514,Female,6c4965b94b21b3df637ec2c327461032,68
1,1,24,64,28,84,26,10174,Female,6c4965b94b21b3df637ec2c327461032,63
1,1,25,46,91,27,81,10465,Female,6c4965b94b21b3df637ec2c327461032,50
1,1,26,73,82,85,92,8720,Female,6c4965b94b21b3df637ec2c327461032,79
1,1,27,37,19,39,20,14866,Female,6c4965b94b21b3df637ec2c327461032,32
1,1,28,91,10,93,8,7131,Female,6c4965b94b21b3df637ec2c327461032,91
1,1,29,91,28,73,21,7911,Female,6c4965b94b21b3df637ec2c327461032,93
1,1,30,10,73,24,82,14396,Female,6c4965b94b21b3df637ec2c327461032,8
1,1,31,46,19,69,19,6700,Female,6c4965b94b21b3df637ec2c327461032,42
1,1,32,64,64,50,74,5012,Female,6c4965b94b21b3df637ec2c327461032,67
1,1,33,28,46,27,38,7813,Female,6c4965b94b21b3df637ec2c327461032,25
1,1,34,46,10,24,11,9897,Female,6c4965b94b21b3df637ec2c327461032,41
1,1,35,91,91,87,90,7082,Female,6c4965b94b21b3df637ec2c327461032,100
1,1,36,82,82,84,81,8063,Female,6c4965b94b21b3df637ec2c327461032,89
1,1,37,19,82,18,81,7243,Female,6c4965b94b21b3df637ec2c327461032,19
1,1,38,46,73,35,80,7250,Female,6c4965b94b21b3df637ec2c327461032,48
1,1,39,55,37,23,24,4742,Female,6c4965b94b21b3df637ec2c327461032,54
1,1,40,64,19,21,18,6743,Female,6c4965b94b21b3df637ec2c327461032,62
1,1,41,19,37,30,22,8454,Female,6c4965b94b21b3df637ec2c327461032,14
1,1,42,73,37,89,19,7421,Female,6c4965b94b21b3df637ec2c327461032,74
1,1,43,46,82,20,80,6415,Female,6c4965b94b21b3df637ec2c327461032,49
1,1,44,10,82,16,83,8842,Female,6c4965b94b21b3df637ec2c327461032,9
1,1,45,19,64,23,76,7316,Female,6c4965b94b21b3df637ec2c327461032,17
1,1,46,28,64,50,34,4930,Female,6c4965b94b21b3df637ec2c327461032,27
1,1,47,37,91,34,92,7688,Female,6c4965b94b21b3df637ec2c327461032,40
1,1,48,37,37,45,26,9951,Female,6c4965b94b21b3df637ec2c327461032,34
1,1,49,55,55,50,43,3423,Female,6c4965b94b21b3df637ec2c327461032,56
1,1,50,82,28,88,21,5222,Female,6c4965b94b21b3df637ec2c327461032,83
1,1,51,82,91,88,85,6852,Female,6c4965b94b21b3df637ec2c327461032,90
1,1,52,82,73,81,72,7193,Female,6c4965b94b21b3df637ec2c327461032,88
1,1,53,19,10,16,16,11750,Female,6c4965b94b21b3df637ec2c327461032,11
1,1,54,55,10,22,12,7304,Female,6c4965b94b21b3df637ec2c327461032,51
1,1,55,37,55,24,55,11078,Female,6c4965b94b21b3df637ec2c327461032,36
1,1,56,91,73,99,80,9541,Female,6c4965b94b21b3df637ec2c327461032,98
1,1,57,46,64,44,69,7450,Female,6c4965b94b21b3df637ec2c327461032,47
1,1,58,28,37,23,31,12004,Female,6c4965b94b21b3df637ec2c327461032,24
1,1,59,55,91,25,83,15555,Female,6c4965b94b21b3df637ec2c327461032,60
1,1,60,91,46,88,27,7227,Female,6c4965b94b21b3df637ec2c327461032,95
1,1,61,10,37,13,23,9138,Female,6c4965b94b21b3df637ec2c327461032,4
1,1,62,10,64,27,34,35963,Female,6c4965b94b21b3df637ec2c327461032,7
1,1,63,64,37,91,20,14253,Female,6c4965b94b21b3df637ec2c327461032,64
1,1,64,82,55,71,63,11416,Female,6c4965b94b21b3df637ec2c327461032,86
1,1,65,37,82,18,84,11606,Female,6c4965b94b21b3df637ec2c327461032,39
1,1,66,91,19,95,11,7197,Female,6c4965b94b21b3df637ec2c327461032,92
1,1,67,19,73,38,69,14283,Female,6c4965b94b21b3df637ec2c327461032,18
1,1,68,46,37,28,32,10677,Female,6c4965b94b21b3df637ec2c327461032,44
1,1,69,73,91,87,86,6745,Female,6c4965b94b21b3df637ec2c327461032,80
1,1,70,10,55,11,82,9615,Female,6c4965b94b21b3df637ec2c327461032,6
1,1,71,28,19,30,18,9448,Female,6c4965b94b21b3df637ec2c327461032,22
1,1,72,82,37,92,20,6635,Female,6c4965b94b21b3df637ec2c327461032,84
1,1,73,64,46,67,24,5567,Female,6c4965b94b21b3df637ec2c327461032,65
1,1,74,10,19,9,14,65210,Female,6c4965b94b21b3df637ec2c327461032,2
1,1,75,37,28,31,32,6340,Female,6c4965b94b21b3df637ec2c327461032,33
1,1,76,37,73,50,76,4127,Female,6c4965b94b21b3df637ec2c327461032,38
1,1,77,91,55,83,69,5400,Female,6c4965b94b21b3df637ec2c327461032,96
1,1,78,82,46,71,41,7542,Female,6c4965b94b21b3df637ec2c327461032,85
1,1,79,64,10,69,7,7820,Female,6c4965b94b21b3df637ec2c327461032,61
1,1,80,73,10,71,11,7319,Female,6c4965b94b21b3df637ec2c327461032,71
1,1,81,73,46,79,20,5428,Female,6c4965b94b21b3df637ec2c327461032,75
1,1,82,28,28,19,27,8282,Female,6c4965b94b21b3df637ec2c327461032,23
1,1,83,28,73,13,74,8281,Female,6c4965b94b21b3df637ec2c327461032,28
1,1,84,46,28,74,24,5435,Female,6c4965b94b21b3df637ec2c327461032,43
1,1,85,91,82,82,74,9010,Female,6c4965b94b21b3df637ec2c327461032,99
1,1,86,82,10,94,10,7540,Female,6c4965b94b21b3df637ec2c327461032,81
1,1,87,64,55,89,29,7926,Female,6c4965b94b21b3df637ec2c327461032,66
1,1,88,46,46,73,31,4860,Female,6c4965b94b21b3df637ec2c327461032,45
1,1,89,55,82,50,81,5028,Female,6c4965b94b21b3df637ec2c327461032,59
1,1,90,28,55,19,50,8696,Female,6c4965b94b21b3df637ec2c327461032,26
1,1,91,55,46,42,39,6665,Female,6c4965b94b21b3df637ec2c327461032,55
1,1,92,82,19,92,19,12296,Female,6c4965b94b21b3df637ec2c327461032,82
1,1,93,28,82,23,89,7470,Female,6c4965b94b21b3df637ec2c327461032,29
1,1,94,37,46,17,40,8322,Female,6c4965b94b21b3df637ec2c327461032,35
1,1,95,73,55,89,40,4985,Female,6c4965b94b21b3df637ec2c327461032,76
1,1,96,55,64,68,58,4668,Female,6c4965b94b21b3df637ec2c327461032,57
1,1,97,64,91,92,90,3887,Female,6c4965b94b21b3df637ec2c327461032,70
1,1,98,55,73,77,75,6460,Female,6c4965b94b21b3df637ec2c327461032,58
1,1,99,73,19,88,22,6680,Female,6c4965b94b21b3df637ec2c327461032,72
1,2,0,91,46,73,43,7622,Female,6c4965b94b21b3df637ec2c327461032,95
1,2,1,55,82,43,82,8374,Female,6c4965b94b21b3df637ec2c327461032,59
1,2,2,73,37,38,35,6940,Female,6c4965b94b21b3df637ec2c327461032,74
1,2,3,19,28,12,35,9343,Female,6c4965b94b21b3df637ec2c327461032,13
1,2,4,82,19,84,19,8974,Female,6c4965b94b21b3df637ec2c327461032,82
1,2,5,37,91,84,87,6176,Female,6c4965b94b21b3df637ec2c327461032,40
1,2,6,37,64,35,78,4376,Female,6c4965b94b21b3df637ec2c327461032,37
1,2,7,82,73,56,76,5594,Female,6c4965b94b21b3df637ec2c327461032,88
1,2,8,28,10,27,11,7595,Female,6c4965b94b21b3df637ec2c327461032,21
1,2,9,55,28,54,29,6951,Female,6c4965b94b21b3df637ec2c327461032,53
1,2,10,73,64,78,71,7774,Female,6c4965b94b21b3df637ec2c327461032,77
1,2,11,28,55,31,56,8236,Female,6c4965b94b21b3df637ec2c327461032,26
1,2,12,19,37,10,28,8871,Female,6c4965b94b21b3df637ec2c327461032,14
1,2,13,28,73,26,82,4850,Female,6c4965b94b21b3df637ec2c327461032,28
1,2,14,46,91,50,93,4058,Female,6c4965b94b21b3df637ec2c327461032,50
1,2,15,55,19,67,23,7547,Female,6c4965b94b21b3df637ec2c327461032,52
1,2,16,46,28,55,26,3905,Female,6c4965b94b21b3df637ec2c327461032,43
1,2,17,64,73,50,69,5511,Female,6c4965b94b21b3df637ec2c327461032,68
1,2,18,37,82,35,89,8143,Female,6c4965b94b21b3df637ec2c327461032,39
1,2,19,91,55,88,38,6111,Female,6c4965b94b21b3df637ec2c327461032,96
1,2,20,19,10,30,11,10228,Female,6c4965b94b21b3df637ec2c327461032,11
1,2,21,91,37,89,26,8094,Female,6c4965b94b21b3df637ec2c327461032,94
1,2,22,19,46,10,49,8891,Female,6c4965b94b21b3df637ec2c327461032,15
1,2,23,91,91,90,93,5075,Female,6c4965b94b21b3df637ec2c327461032,100
1,2,24,37,19,27,20,5959,Female,6c4965b94b21b3df637ec2c327461032,32
1,2,25,28,19,20,25,8366,Female,6c4965b94b21b3df637ec2c327461032,22
1,2,26,46,19,28,28,5592,Female,6c4965b94b21b3df637ec2c327461032,42
1,2,27,46,64,56,32,6286,Female,6c4965b94b21b3df637ec2c327461032,47
1,2,28,28,64,64,40,8094,Female,6c4965b94b21b3df637ec2c327461032,27
1,2,29,10,10,8,10,8006,Female,6c4965b94b21b3df637ec2c327461032,1
1,2,30,46,10,44,13,6860,Female,6c4965b94b21b3df637ec2c327461032,41
1,2,31,91,73,93,75,10608,Female,6c4965b94b21b3df637ec2c327461032,98
1,2,32,91,19,93,16,7347,Female,6c4965b94b21b3df637ec2c327461032,92
1,2,33,64,82,30,80,4328,Female,6c4965b94b21b3df637ec2c327461032,69
1,2,34,82,10,95,17,11239,Female,6c4965b94b21b3df637ec2c327461032,81
1,2,35,10,19,10,16,7211,Female,6c4965b94b21b3df637ec2c327461032,2
1,2,36,10,73,13,72,5936,Female,6c4965b94b21b3df637ec2c327461032,8
1,2,37,37,10,28,16,9590,Female,6c4965b94b21b3df637ec2c327461032,31
1,2,38,55,55,58,31,5102,Female,6c4965b94b21b3df637ec2c327461032,56
1,2,39,82,46,65,41,7233,Female,6c4965b94b21b3df637ec2c327461032,85
1,2,40,37,37,33,32,7985,Female,6c4965b94b21b3df637ec2c327461032,34
1,2,41,19,55,12,36,6529,Female,6c4965b94b21b3df637ec2c327461032,16
1,2,42,91,10,93,13,9075,Female,6c4965b94b21b3df637ec2c327461032,91
1,2,43,28,82,29,85,8730,Female,6c4965b94b21b3df637ec2c327461032,29
1,2,44,19,91,16,84,7236,Female,6c4965b94b21b3df637ec2c327461032,20
1,2,45,55,10,69,23,9551,Female,6c4965b94b21b3df637ec2c327461032,51
1,2,46,37,73,54,68,6676,Female,6c4965b94b21b3df637ec2c327461032,38
1,2,47,10,55,10,23,5914,Female,6c4965b94b21b3df637ec2c327461032,6
1,2,48,10,37,38,25,6137,Female,6c4965b94b21b3df637ec2c327461032,4
1,2,49,73,19,90,25,7166,Female,6c4965b94b21b3df637ec2c327461032,72
1,2,50,28,46,38,53,5980,Female,6c4965b94b21b3df637ec2c327461032,25
1,2,51,10,46,13,45,6707,Female,6c4965b94b21b3df637ec2c327461032,5
1,2,52,82,64,90,50,7429,Female,6c4965b94b21b3df637ec2c327461032,87
1,2,53,73,46,58,54,5992,Female,6c4965b94b21b3df637ec2c327461032,75
1,2,54,55,46,50,35,3648,Female,6c4965b94b21b3df637ec2c327461032,55
1,2,55,28,91,25,96,6339,Female,6c4965b94b21b3df637ec2c327461032,30
1,2,56,55,64,54,62,6334,Female,6c4965b94b21b3df637ec2c327461032,57
1,2,57,37,46,50,50,2666,Female,6c4965b94b21b3df637ec2c327461032,35
1,2,58,37,28,50,29,7191,Female,6c4965b94b21b3df637ec2c327461032,33
1,2,59,82,91,94,89,8560,Female,6c4965b94b21b3df637ec2c327461032,90
1,2,60,82,55,68,42,7463,Female,6c4965b94b21b3df637ec2c327461032,86
1,2,61,19,64,80,27,5988,Female,6c4965b94b21b3df637ec2c327461032,17
1,2,62,91,64,98,36,9364,Female,6c4965b94b21b3df637ec2c327461032,97
1,2,63,64,55,68,50,5417,Female,6c4965b94b21b3df637ec2c327461032,66
1,2,64,73,82,81,79,6071,Female,6c4965b94b21b3df637ec2c327461032,79
1,2,65,64,28,70,30,9314,Female,6c4965b94b21b3df637ec2c327461032,63
1,2,66,46,55,44,36,6814,Female,6c4965b94b21b3df637ec2c327461032,46
1,2,67,64,64,50,40,5756,Female,6c4965b94b21b3df637ec2c327461032,67
1,2,68,82,37,87,28,6687,Female,6c4965b94b21b3df637ec2c327461032,84
1,2,69,91,82,79,86,5007,Female,6c4965b94b21b3df637ec2c327461032,99
1,2,70,64,91,85,81,5216,Female,6c4965b94b21b3df637ec2c327461032,70
1,2,71,46,37,50,82,6062,Female,6c4965b94b21b3df637ec2c327461032,44
1,2,72,82,82,90,85,5300,Female,6c4965b94b21b3df637ec2c327461032,89
1,2,73,73,10,90,12,6302,Female,6c4965b94b21b3df637ec2c327461032,71
1,2,74,10,91,8,91,6992,Female,6c4965b94b21b3df637ec2c327461032,10
1,2,75,91,28,85,28,9613,Female,6c4965b94b21b3df637ec2c327461032,93
1,2,76,55,73,50,63,5445,Female,6c4965b94b21b3df637ec2c327461032,58
1,2,77,64,10,58,12,7513,Female,6c4965b94b21b3df637ec2c327461032,61
1,2,78,37,55,28,33,6696,Female,6c4965b94b21b3df637ec2c327461032,36
1,2,79,73,73,86,81,8462,Female,6c4965b94b21b3df637ec2c327461032,78
1,2,80,46,46,72,76,7634,Female,6c4965b94b21b3df637ec2c327461032,45
1,2,81,46,73,62,68,6908,Female,6c4965b94b21b3df637ec2c327461032,48
1,2,82,73,91,89,88,7514,Female,6c4965b94b21b3df637ec2c327461032,80
1,2,83,55,37,73,27,6121,Female,6c4965b94b21b3df637ec2c327461032,54
1,2,84,55,91,53,91,5299,Female,6c4965b94b21b3df637ec2c327461032,60
1,2,85,28,28,12,27,7378,Female,6c4965b94b21b3df637ec2c327461032,23
1,2,86,46,82,19,23,6636,Female,6c4965b94b21b3df637ec2c327461032,49
1,2,87,10,82,11,87,8892,Female,6c4965b94b21b3df637ec2c327461032,9
1,2,88,73,28,78,24,6020,Female,6c4965b94b21b3df637ec2c327461032,73
1,2,89,10,64,32,49,6757,Female,6c4965b94b21b3df637ec2c327461032,7
1,2,90,64,46,35,43,5104,Female,6c4965b94b21b3df637ec2c327461032,65
1,2,91,64,37,64,39,6215,Female,6c4965b94b21b3df637ec2c327461032,64
1,2,92,28,37,34,34,4593,Female,6c4965b94b21b3df637ec2c327461032,24
1,2,93,82,28,85,31,7207,Female,6c4965b94b21b3df637ec2c327461032,83
1,2,94,19,73,22,79,5155,Female,6c4965b94b21b3df637ec2c327461032,18
1,2,95,19,82,15,87,6378,Female,6c4965b94b21b3df637ec2c327461032,19
1,2,96,10,28,14,23,7779,Female,6c4965b94b21b3df637ec2c327461032,3
1,2,97,64,19,21,17,6484,Female,6c4965b94b21b3df637ec2c327461032,62
1,2,98,19,19,15,16,6377,Female,6c4965b94b21b3df637ec2c327461032,12
1,2,99,73,55,79,26,14591,Female,6c4965b94b21b3df637ec2c327461032,76
1,1,0,73,46,50,53,4500,NA,f621bdf05322306dbcc7bc1317835477,75
1,1,1,55,46,37,42,10400,NA,f621bdf05322306dbcc7bc1317835477,55
1,1,2,91,82,90,81,12200,NA,f621bdf05322306dbcc7bc1317835477,99
1,1,3,28,46,35,32,14000,NA,f621bdf05322306dbcc7bc1317835477,25
1,1,4,37,19,36,32,5000,NA,f621bdf05322306dbcc7bc1317835477,32
1,1,5,82,10,96,15,4800,NA,f621bdf05322306dbcc7bc1317835477,81
1,1,6,64,37,79,23,6500,NA,f621bdf05322306dbcc7bc1317835477,64
1,1,7,10,55,13,16,4400,NA,f621bdf05322306dbcc7bc1317835477,6
1,1,8,28,64,15,84,10200,NA,f621bdf05322306dbcc7bc1317835477,27
1,1,9,28,28,19,23,4800,NA,f621bdf05322306dbcc7bc1317835477,23
1,1,10,46,82,12,88,4600,NA,f621bdf05322306dbcc7bc1317835477,49
1,1,11,10,37,23,26,5800,NA,f621bdf05322306dbcc7bc1317835477,4
1,1,12,46,64,72,50,3100,NA,f621bdf05322306dbcc7bc1317835477,47
1,1,13,46,19,26,10,7000,NA,f621bdf05322306dbcc7bc1317835477,42
1,1,14,37,37,40,26,3600,NA,f621bdf05322306dbcc7bc1317835477,34
1,1,15,91,91,91,87,3200,NA,f621bdf05322306dbcc7bc1317835477,100
1,1,16,55,64,41,64,3800,NA,f621bdf05322306dbcc7bc1317835477,57
1,1,17,82,91,84,70,4500,NA,f621bdf05322306dbcc7bc1317835477,90
1,1,18,37,55,41,45,4500,NA,f621bdf05322306dbcc7bc1317835477,36
1,1,19,10,64,24,53,3000,NA,f621bdf05322306dbcc7bc1317835477,7
1,1,20,55,37,29,23,5200,NA,f621bdf05322306dbcc7bc1317835477,54
1,1,21,73,91,81,76,3500,NA,f621bdf05322306dbcc7bc1317835477,80
1,1,22,10,73,4,73,2200,NA,f621bdf05322306dbcc7bc1317835477,8
1,1,23,55,10,64,2,3100,NA,f621bdf05322306dbcc7bc1317835477,51
1,1,24,55,19,39,18,6400,NA,f621bdf05322306dbcc7bc1317835477,52
1,1,25,46,46,30,16,6800,NA,f621bdf05322306dbcc7bc1317835477,45
1,1,26,19,91,10,93,3700,NA,f621bdf05322306dbcc7bc1317835477,20
1,1,27,82,82,88,68,5300,NA,f621bdf05322306dbcc7bc1317835477,89
1,1,28,19,73,16,75,2600,NA,f621bdf05322306dbcc7bc1317835477,18
1,1,29,64,64,68,57,3100,NA,f621bdf05322306dbcc7bc1317835477,67
1,1,30,10,46,16,80,3700,NA,f621bdf05322306dbcc7bc1317835477,5
1,1,31,10,91,29,77,7500,NA,f621bdf05322306dbcc7bc1317835477,10
1,1,32,28,37,28,24,3500,NA,f621bdf05322306dbcc7bc1317835477,24
1,1,33,37,28,31,42,2800,NA,f621bdf05322306dbcc7bc1317835477,33
1,1,34,73,82,74,83,2500,NA,f621bdf05322306dbcc7bc1317835477,79
1,1,35,10,82,21,85,2300,NA,f621bdf05322306dbcc7bc1317835477,9
1,1,36,73,10,19,8,9100,NA,f621bdf05322306dbcc7bc1317835477,71
1,1,37,37,82,38,73,3000,NA,f621bdf05322306dbcc7bc1317835477,39
1,1,38,64,73,77,25,4000,NA,f621bdf05322306dbcc7bc1317835477,68
1,1,39,73,55,68,37,6300,NA,f621bdf05322306dbcc7bc1317835477,76
1,1,40,19,82,20,44,3900,NA,f621bdf05322306dbcc7bc1317835477,19
1,1,41,91,10,94,5,7400,NA,f621bdf05322306dbcc7bc1317835477,91
1,1,42,64,46,33,35,5300,NA,f621bdf05322306dbcc7bc1317835477,65
1,1,43,64,10,39,8,4800,NA,f621bdf05322306dbcc7bc1317835477,61
1,1,44,55,82,50,82,4700,NA,f621bdf05322306dbcc7bc1317835477,59
1,1,45,46,28,59,23,5000,NA,f621bdf05322306dbcc7bc1317835477,43
1,1,46,28,82,18,24,7900,NA,f621bdf05322306dbcc7bc1317835477,29
1,1,47,73,37,87,21,3100,NA,f621bdf05322306dbcc7bc1317835477,74
1,1,48,91,55,99,31,3700,NA,f621bdf05322306dbcc7bc1317835477,96
1,1,49,64,55,75,17,5000,NA,f621bdf05322306dbcc7bc1317835477,66
1,1,50,73,64,80,32,6100,NA,f621bdf05322306dbcc7bc1317835477,77
1,1,51,82,37,87,15,2200,NA,f621bdf05322306dbcc7bc1317835477,84
1,1,52,37,91,83,37,7200,NA,f621bdf05322306dbcc7bc1317835477,40
1,1,53,28,91,50,50,5200,NA,f621bdf05322306dbcc7bc1317835477,30
1,1,54,82,19,92,10,4000,NA,f621bdf05322306dbcc7bc1317835477,82
1,1,55,37,10,34,12,7000,NA,f621bdf05322306dbcc7bc1317835477,31
1,1,56,19,19,30,20,3300,NA,f621bdf05322306dbcc7bc1317835477,12
1,1,57,73,28,85,21,4200,NA,f621bdf05322306dbcc7bc1317835477,73
1,1,58,28,55,27,25,3100,NA,f621bdf05322306dbcc7bc1317835477,26
1,1,59,37,64,36,70,2800,NA,f621bdf05322306dbcc7bc1317835477,37
1,1,60,28,10,27,22,4800,NA,f621bdf05322306dbcc7bc1317835477,21
1,1,61,19,28,30,74,4900,NA,f621bdf05322306dbcc7bc1317835477,13
1,1,62,19,37,36,71,4100,NA,f621bdf05322306dbcc7bc1317835477,14
1,1,63,64,91,60,88,3600,NA,f621bdf05322306dbcc7bc1317835477,70
1,1,64,82,55,59,76,2800,NA,f621bdf05322306dbcc7bc1317835477,86
1,1,65,73,73,67,89,3700,NA,f621bdf05322306dbcc7bc1317835477,78
1,1,66,46,91,67,81,3500,NA,f621bdf05322306dbcc7bc1317835477,50
1,1,67,82,73,80,92,4200,NA,f621bdf05322306dbcc7bc1317835477,88
1,1,68,73,19,95,9,3500,NA,f621bdf05322306dbcc7bc1317835477,72
1,1,69,28,19,29,8,3800,NA,f621bdf05322306dbcc7bc1317835477,22
1,1,70,64,28,58,31,4400,NA,f621bdf05322306dbcc7bc1317835477,63
1,1,71,82,46,83,31,2700,NA,f621bdf05322306dbcc7bc1317835477,85
1,1,72,10,19,21,18,1900,NA,f621bdf05322306dbcc7bc1317835477,2
1,1,73,19,10,6,8,2400,NA,f621bdf05322306dbcc7bc1317835477,11
1,1,74,19,46,8,36,6000,NA,f621bdf05322306dbcc7bc1317835477,15
1,1,75,82,64,91,63,6300,NA,f621bdf05322306dbcc7bc1317835477,87
1,1,76,19,64,18,69,2300,NA,f621bdf05322306dbcc7bc1317835477,17
1,1,77,91,37,61,30,4000,NA,f621bdf05322306dbcc7bc1317835477,94
1,1,78,64,82,63,77,7000,NA,f621bdf05322306dbcc7bc1317835477,69
1,1,79,10,28,24,13,3200,NA,f621bdf05322306dbcc7bc1317835477,3
1,1,80,91,28,85,19,2600,NA,f621bdf05322306dbcc7bc1317835477,93
1,1,81,46,73,44,23,3500,NA,f621bdf05322306dbcc7bc1317835477,48
1,1,82,37,73,30,21,4300,NA,f621bdf05322306dbcc7bc1317835477,38
1,1,83,91,19,84,23,3600,NA,f621bdf05322306dbcc7bc1317835477,92
2,1,0,91,10,25,29,54622,Male,644e74082dea116345e87208e1669b38,91
2,1,1,37,10,35,17,107551,Male,644e74082dea116345e87208e1669b38,31
2,1,2,10,91,59,57,60210,Male,644e74082dea116345e87208e1669b38,10
2,1,3,37,37,40,27,120567,Male,644e74082dea116345e87208e1669b38,34
2,1,4,64,19,80,11,68363,Male,644e74082dea116345e87208e1669b38,62
2,1,5,73,82,80,89,42015,Male,644e74082dea116345e87208e1669b38,79
2,1,6,82,10,83,5,39927,Male,644e74082dea116345e87208e1669b38,81
2,1,7,64,37,81,28,44273,Male,644e74082dea116345e87208e1669b38,64
2,1,8,28,55,44,50,45218,Male,644e74082dea116345e87208e1669b38,26
2,1,9,73,37,88,30,41464,Male,644e74082dea116345e87208e1669b38,74
2,1,10,73,19,82,11,99209,Male,644e74082dea116345e87208e1669b38,72
2,1,11,37,64,41,62,70491,Male,644e74082dea116345e87208e1669b38,37
2,1,12,46,73,65,77,38502,Male,644e74082dea116345e87208e1669b38,48
2,1,13,19,19,40,10,56395,Male,644e74082dea116345e87208e1669b38,12
2,1,14,82,19,82,7,111328,Male,644e74082dea116345e87208e1669b38,82
2,1,15,55,28,9,14,76747,Male,644e74082dea116345e87208e1669b38,53
2,1,16,46,82,100,85,42444,Male,644e74082dea116345e87208e1669b38,49
2,1,17,73,73,1,73,49052,Male,644e74082dea116345e87208e1669b38,78
2,1,18,19,55,5,50,18207,Male,644e74082dea116345e87208e1669b38,16
2,1,19,64,55,50,50,14671,Male,644e74082dea116345e87208e1669b38,66
2,1,20,55,91,50,93,35077,Male,644e74082dea116345e87208e1669b38,60
2,1,21,28,46,30,30,45247,Male,644e74082dea116345e87208e1669b38,25
2,1,22,46,64,43,57,45310,Male,644e74082dea116345e87208e1669b38,47
2,1,23,10,82,8,85,55227,Male,644e74082dea116345e87208e1669b38,9
2,1,24,64,91,73,88,48099,Male,644e74082dea116345e87208e1669b38,70
2,1,25,46,46,44,36,60331,Male,644e74082dea116345e87208e1669b38,45
2,1,26,82,28,80,15,32761,Male,644e74082dea116345e87208e1669b38,83
2,1,27,55,73,44,73,37689,Male,644e74082dea116345e87208e1669b38,58
2,1,28,64,46,50,39,21952,Male,644e74082dea116345e87208e1669b38,65
2,1,29,19,82,19,90,45597,Male,644e74082dea116345e87208e1669b38,19
2,1,30,91,55,86,50,28743,Male,644e74082dea116345e87208e1669b38,96
2,1,31,73,55,80,50,22109,Male,644e74082dea116345e87208e1669b38,76
2,1,32,82,73,90,81,46515,Male,644e74082dea116345e87208e1669b38,88
2,1,33,55,64,51,69,53267,Male,644e74082dea116345e87208e1669b38,57
2,1,34,73,64,73,68,52906,Male,644e74082dea116345e87208e1669b38,77
2,1,35,28,82,27,86,43865,Male,644e74082dea116345e87208e1669b38,29
2,1,36,82,91,90,91,32611,Male,644e74082dea116345e87208e1669b38,90
2,1,37,73,91,82,92,46345,Male,644e74082dea116345e87208e1669b38,80
2,1,38,19,10,6,7,26978,Male,644e74082dea116345e87208e1669b38,11
2,1,39,91,82,84,80,51813,Male,644e74082dea116345e87208e1669b38,99
2,1,40,10,64,6,60,47890,Male,644e74082dea116345e87208e1669b38,7
2,1,41,10,10,7,10,57920,Male,644e74082dea116345e87208e1669b38,1
2,1,42,28,19,26,15,35540,Male,644e74082dea116345e87208e1669b38,22
2,1,43,37,73,28,77,64582,Male,644e74082dea116345e87208e1669b38,38
2,1,44,73,28,84,19,54507,Male,644e74082dea116345e87208e1669b38,73
2,1,45,10,73,12,82,28737,Male,644e74082dea116345e87208e1669b38,8
2,1,46,91,28,84,17,31292,Male,644e74082dea116345e87208e1669b38,93
2,1,47,64,73,50,50,40764,Male,644e74082dea116345e87208e1669b38,68
2,1,48,10,19,12,11,26193,Male,644e74082dea116345e87208e1669b38,2
2,1,49,28,64,26,70,39917,Male,644e74082dea116345e87208e1669b38,27
2,1,50,37,82,36,90,29639,Male,644e74082dea116345e87208e1669b38,39
2,1,51,37,55,40,45,36770,Male,644e74082dea116345e87208e1669b38,36
2,1,52,82,46,80,41,35214,Male,644e74082dea116345e87208e1669b38,85
2,1,53,10,46,6,47,30273,Male,644e74082dea116345e87208e1669b38,5
2,1,54,19,46,22,43,36960,Male,644e74082dea116345e87208e1669b38,15
2,1,55,55,82,50,85,35636,Male,644e74082dea116345e87208e1669b38,59
2,1,56,82,64,86,66,42279,Male,644e74082dea116345e87208e1669b38,87
2,1,57,19,28,23,22,60766,Male,644e74082dea116345e87208e1669b38,13
2,1,58,37,28,28,17,30643,Male,644e74082dea116345e87208e1669b38,33
2,1,59,82,55,84,44,64576,Male,644e74082dea116345e87208e1669b38,86
2,1,60,19,73,11,74,50884,Male,644e74082dea116345e87208e1669b38,18
2,1,61,64,82,50,50,17459,Male,644e74082dea116345e87208e1669b38,69
2,1,62,82,37,83,17,18332,Male,644e74082dea116345e87208e1669b38,84
2,1,63,64,28,75,22,7653,Male,644e74082dea116345e87208e1669b38,63
2,1,64,46,28,50,50,2160,Male,644e74082dea116345e87208e1669b38,43
2,1,65,55,46,61,43,9258,Male,644e74082dea116345e87208e1669b38,55
2,1,66,28,73,29,67,12946,Male,644e74082dea116345e87208e1669b38,28
2,1,67,19,64,18,89,12115,Male,644e74082dea116345e87208e1669b38,17
2,1,68,64,64,72,41,6235,Male,644e74082dea116345e87208e1669b38,67
2,1,69,91,64,70,66,6065,Male,644e74082dea116345e87208e1669b38,97
2,1,70,73,10,65,11,5925,Male,644e74082dea116345e87208e1669b38,71
2,1,71,82,82,74,86,9469,Male,644e74082dea116345e87208e1669b38,89
2,1,72,55,19,84,9,6317,Male,644e74082dea116345e87208e1669b38,52
2,1,73,73,46,75,22,4995,Male,644e74082dea116345e87208e1669b38,75
2,1,74,46,10,77,11,7079,Male,644e74082dea116345e87208e1669b38,41
2,1,75,28,91,13,91,7403,Male,644e74082dea116345e87208e1669b38,30
2,1,76,55,55,30,37,5158,Male,644e74082dea116345e87208e1669b38,56
2,1,77,91,73,96,71,11235,Male,644e74082dea116345e87208e1669b38,98
2,1,78,10,55,3,77,7223,Male,644e74082dea116345e87208e1669b38,6
2,1,79,55,10,50,50,1415,Male,644e74082dea116345e87208e1669b38,51
2,1,80,28,37,14,15,4859,Male,644e74082dea116345e87208e1669b38,24
2,1,81,28,28,10,7,4406,Male,644e74082dea116345e87208e1669b38,23
2,1,82,91,91,91,88,10310,Male,644e74082dea116345e87208e1669b38,100
2,1,83,46,37,84,26,7817,Male,644e74082dea116345e87208e1669b38,44
2,1,84,46,55,77,21,8500,Male,644e74082dea116345e87208e1669b38,46
2,1,85,37,19,50,50,2178,Male,644e74082dea116345e87208e1669b38,32
2,1,86,91,19,88,9,6248,Male,644e74082dea116345e87208e1669b38,92
2,1,87,37,46,32,35,5223,Male,644e74082dea116345e87208e1669b38,35
2,1,88,64,10,80,7,6877,Male,644e74082dea116345e87208e1669b38,61
2,1,89,91,37,81,20,5781,Male,644e74082dea116345e87208e1669b38,94
2,1,90,37,91,26,87,8785,Male,644e74082dea116345e87208e1669b38,40
2,1,91,46,91,29,91,12123,Male,644e74082dea116345e87208e1669b38,50
2,1,92,28,10,15,8,5459,Male,644e74082dea116345e87208e1669b38,21
2,1,93,10,37,10,6,9214,Male,644e74082dea116345e87208e1669b38,4
2,1,94,10,28,23,15,6025,Male,644e74082dea116345e87208e1669b38,3
2,1,95,55,37,35,19,4686,Male,644e74082dea116345e87208e1669b38,54
2,1,96,91,46,88,39,4756,Male,644e74082dea116345e87208e1669b38,95
2,1,97,19,91,27,96,5545,Male,644e74082dea116345e87208e1669b38,20
2,1,98,46,19,32,13,6342,Male,644e74082dea116345e87208e1669b38,42
2,1,99,19,37,24,29,8346,Male,644e74082dea116345e87208e1669b38,14
2,2,0,37,73,66,78,9860,Male,644e74082dea116345e87208e1669b38,38
2,2,1,28,10,30,11,6289,Male,644e74082dea116345e87208e1669b38,21
2,2,2,10,82,14,90,5201,Male,644e74082dea116345e87208e1669b38,9
2,2,3,28,46,25,44,8646,Male,644e74082dea116345e87208e1669b38,25
2,2,4,55,82,36,71,7798,Male,644e74082dea116345e87208e1669b38,59
2,2,5,19,28,41,31,13790,Male,644e74082dea116345e87208e1669b38,13
2,2,6,91,82,90,79,10525,Male,644e74082dea116345e87208e1669b38,99
2,2,7,28,91,32,92,7652,Male,644e74082dea116345e87208e1669b38,30
2,2,8,82,91,88,91,5152,Male,644e74082dea116345e87208e1669b38,90
2,2,9,28,64,42,88,5618,Male,644e74082dea116345e87208e1669b38,27
2,2,10,46,73,35,75,10405,Male,644e74082dea116345e87208e1669b38,48
2,2,11,55,28,42,20,5042,Male,644e74082dea116345e87208e1669b38,53
2,2,12,46,37,35,22,4752,Male,644e74082dea116345e87208e1669b38,44
2,2,13,37,55,57,64,3879,Male,644e74082dea116345e87208e1669b38,36
2,2,14,37,10,55,11,5371,Male,644e74082dea116345e87208e1669b38,31
2,2,15,19,55,21,61,6345,Male,644e74082dea116345e87208e1669b38,16
2,2,16,82,55,86,65,5839,Male,644e74082dea116345e87208e1669b38,86
2,2,17,64,10,66,12,5276,Male,644e74082dea116345e87208e1669b38,61
2,2,18,55,10,67,13,5900,Male,644e74082dea116345e87208e1669b38,51
2,2,19,91,73,87,85,9506,Male,644e74082dea116345e87208e1669b38,98
2,2,20,73,28,76,23,7771,Male,644e74082dea116345e87208e1669b38,73
2,2,21,55,46,67,56,6398,Male,644e74082dea116345e87208e1669b38,55
2,2,22,82,82,69,81,13642,Male,644e74082dea116345e87208e1669b38,89
2,2,23,37,46,34,33,5449,Male,644e74082dea116345e87208e1669b38,35
2,2,24,46,28,27,27,4641,Male,644e74082dea116345e87208e1669b38,43
2,2,25,37,64,35,73,7183,Male,644e74082dea116345e87208e1669b38,37
2,2,26,82,10,85,19,7361,Male,644e74082dea116345e87208e1669b38,81
2,2,27,19,46,21,27,7816,Male,644e74082dea116345e87208e1669b38,15
2,2,28,55,19,60,24,5215,Male,644e74082dea116345e87208e1669b38,52
2,2,29,82,46,71,58,6220,Male,644e74082dea116345e87208e1669b38,85
2,2,30,73,37,82,30,6767,Male,644e74082dea116345e87208e1669b38,74
2,2,31,55,91,72,91,4125,Male,644e74082dea116345e87208e1669b38,60
2,2,32,10,55,19,73,5569,Male,644e74082dea116345e87208e1669b38,6
2,2,33,91,91,93,92,6192,Male,644e74082dea116345e87208e1669b38,100
2,2,34,10,19,11,18,6580,Male,644e74082dea116345e87208e1669b38,2
2,2,35,91,64,85,61,10455,Male,644e74082dea116345e87208e1669b38,97
2,2,36,46,19,64,19,5706,Male,644e74082dea116345e87208e1669b38,42
2,2,37,19,64,23,70,3421,Male,644e74082dea116345e87208e1669b38,17
2,2,38,28,19,20,15,5617,Male,644e74082dea116345e87208e1669b38,22
2,2,39,37,37,31,27,5025,Male,644e74082dea116345e87208e1669b38,34
2,2,40,73,55,66,48,7462,Male,644e74082dea116345e87208e1669b38,76
2,2,41,91,28,76,30,6100,Male,644e74082dea116345e87208e1669b38,93
2,2,42,28,82,20,81,6914,Male,644e74082dea116345e87208e1669b38,29
2,2,43,55,37,46,72,6389,Male,644e74082dea116345e87208e1669b38,54
2,2,44,55,55,55,55,5532,Male,644e74082dea116345e87208e1669b38,56
2,2,45,28,55,27,61,3407,Male,644e74082dea116345e87208e1669b38,26
2,2,46,91,19,80,24,9238,Male,644e74082dea116345e87208e1669b38,92
2,2,47,64,37,73,32,6702,Male,644e74082dea116345e87208e1669b38,64
2,2,48,64,91,70,93,7915,Male,644e74082dea116345e87208e1669b38,70
2,2,49,73,46,59,60,3979,Male,644e74082dea116345e87208e1669b38,75
2,2,50,46,91,63,93,4275,Male,644e74082dea116345e87208e1669b38,50
2,2,51,19,10,13,27,6456,Male,644e74082dea116345e87208e1669b38,11
2,2,52,19,37,15,14,5352,Male,644e74082dea116345e87208e1669b38,14
2,2,53,64,46,73,50,3880,Male,644e74082dea116345e87208e1669b38,65
2,2,54,73,73,78,66,6669,Male,644e74082dea116345e87208e1669b38,78
2,2,55,64,73,78,72,8006,Male,644e74082dea116345e87208e1669b38,68
2,2,56,10,91,20,88,5590,Male,644e74082dea116345e87208e1669b38,10
2,2,57,64,19,90,23,9154,Male,644e74082dea116345e87208e1669b38,62
2,2,58,10,73,21,66,4782,Male,644e74082dea116345e87208e1669b38,8
2,2,59,82,37,80,29,5008,Male,644e74082dea116345e87208e1669b38,84
2,2,60,46,64,57,63,4246,Male,644e74082dea116345e87208e1669b38,47
2,2,61,82,19,61,19,7646,Male,644e74082dea116345e87208e1669b38,82
2,2,62,73,19,68,18,4250,Male,644e74082dea116345e87208e1669b38,72
2,2,63,19,19,18,20,5845,Male,644e74082dea116345e87208e1669b38,12
2,2,64,91,10,92,12,4229,Male,644e74082dea116345e87208e1669b38,91
2,2,65,64,64,69,76,5744,Male,644e74082dea116345e87208e1669b38,67
2,2,66,10,10,8,11,4917,Male,644e74082dea116345e87208e1669b38,1
2,2,67,82,64,70,66,5789,Male,644e74082dea116345e87208e1669b38,87
2,2,68,37,28,33,25,6704,Male,644e74082dea116345e87208e1669b38,33
2,2,69,46,10,44,30,5832,Male,644e74082dea116345e87208e1669b38,41
2,2,70,82,73,69,65,5618,Male,644e74082dea116345e87208e1669b38,88
2,2,71,73,64,64,61,4360,Male,644e74082dea116345e87208e1669b38,77
2,2,72,55,73,70,63,3088,Male,644e74082dea116345e87208e1669b38,58
2,2,73,37,91,39,92,4964,Male,644e74082dea116345e87208e1669b38,40
2,2,74,55,64,60,61,4426,Male,644e74082dea116345e87208e1669b38,57
2,2,75,82,28,68,32,6558,Male,644e74082dea116345e87208e1669b38,83
2,2,76,19,73,15,76,6916,Male,644e74082dea116345e87208e1669b38,18
2,2,77,28,28,30,29,8970,Male,644e74082dea116345e87208e1669b38,23
2,2,78,10,37,22,37,7644,Male,644e74082dea116345e87208e1669b38,4
2,2,79,19,82,23,30,5604,Male,644e74082dea116345e87208e1669b38,19
2,2,80,46,55,50,56,4244,Male,644e74082dea116345e87208e1669b38,46
2,2,81,46,46,47,45,6441,Male,644e74082dea116345e87208e1669b38,45
2,2,82,10,46,24,41,3583,Male,644e74082dea116345e87208e1669b38,5
2,2,83,28,37,27,37,3963,Male,644e74082dea116345e87208e1669b38,24
2,2,84,91,46,85,45,4983,Male,644e74082dea116345e87208e1669b38,95
2,2,85,73,82,68,81,3411,Male,644e74082dea116345e87208e1669b38,79
2,2,86,46,82,67,88,5230,Male,644e74082dea116345e87208e1669b38,49
2,2,87,64,82,70,87,6642,Male,644e74082dea116345e87208e1669b38,69
2,2,88,10,64,24,62,6366,Male,644e74082dea116345e87208e1669b38,7
2,2,89,91,37,74,30,3690,Male,644e74082dea116345e87208e1669b38,94
2,2,90,64,28,76,30,6786,Male,644e74082dea116345e87208e1669b38,63
2,2,91,73,10,60,17,5544,Male,644e74082dea116345e87208e1669b38,71
2,2,92,73,91,69,91,6515,Male,644e74082dea116345e87208e1669b38,80
2,2,93,64,55,75,59,5456,Male,644e74082dea116345e87208e1669b38,66
2,2,94,19,91,25,91,7645,Male,644e74082dea116345e87208e1669b38,20
2,2,95,10,28,18,32,7697,Male,644e74082dea116345e87208e1669b38,3
2,2,96,37,82,23,67,4957,Male,644e74082dea116345e87208e1669b38,39
2,2,97,91,55,78,57,4752,Male,644e74082dea116345e87208e1669b38,96
2,2,98,37,19,50,50,1171,Male,644e74082dea116345e87208e1669b38,32
2,2,99,28,73,36,77,6135,Male,644e74082dea116345e87208e1669b38,28
1,1,0,82,64,73,55,17678,Female,f5aa7b40a32f702b9764e802f001f57d,87
1,1,1,73,55,77,59,10489,Female,f5aa7b40a32f702b9764e802f001f57d,76
1,1,2,10,55,15,56,13905,Female,f5aa7b40a32f702b9764e802f001f57d,6
1,1,3,19,82,16,87,11802,Female,f5aa7b40a32f702b9764e802f001f57d,19
1,1,4,37,28,29,36,17096,Female,f5aa7b40a32f702b9764e802f001f57d,33
1,1,5,55,82,61,71,13467,Female,f5aa7b40a32f702b9764e802f001f57d,59
1,1,6,91,28,88,30,8277,Female,f5aa7b40a32f702b9764e802f001f57d,93
1,1,7,82,55,78,57,7934,Female,f5aa7b40a32f702b9764e802f001f57d,86
1,1,8,46,10,56,10,14141,Female,f5aa7b40a32f702b9764e802f001f57d,41
1,1,9,55,73,59,73,7645,Female,f5aa7b40a32f702b9764e802f001f57d,58
1,1,10,91,19,91,12,11709,Female,f5aa7b40a32f702b9764e802f001f57d,92
1,1,11,10,19,14,12,9299,Female,f5aa7b40a32f702b9764e802f001f57d,2
1,1,12,10,91,1,96,14417,Female,f5aa7b40a32f702b9764e802f001f57d,10
1,1,13,82,82,80,83,10139,Female,f5aa7b40a32f702b9764e802f001f57d,89
1,1,14,55,64,53,54,9770,Female,f5aa7b40a32f702b9764e802f001f57d,57
1,1,15,28,91,21,94,10460,Female,f5aa7b40a32f702b9764e802f001f57d,30
1,1,16,10,28,6,12,8967,Female,f5aa7b40a32f702b9764e802f001f57d,3
1,1,17,82,19,89,9,7688,Female,f5aa7b40a32f702b9764e802f001f57d,82
1,1,18,19,37,31,36,10830,Female,f5aa7b40a32f702b9764e802f001f57d,14
1,1,19,28,46,28,46,8431,Female,f5aa7b40a32f702b9764e802f001f57d,25
1,1,20,55,91,63,96,9886,Female,f5aa7b40a32f702b9764e802f001f57d,60
1,1,21,91,10,100,8,8667,Female,f5aa7b40a32f702b9764e802f001f57d,91
1,1,22,73,37,72,29,10285,Female,f5aa7b40a32f702b9764e802f001f57d,74
1,1,23,82,37,80,36,6997,Female,f5aa7b40a32f702b9764e802f001f57d,84
1,1,24,82,46,96,37,5502,Female,f5aa7b40a32f702b9764e802f001f57d,85
1,1,25,37,37,35,34,7815,Female,f5aa7b40a32f702b9764e802f001f57d,34
1,1,26,37,55,35,50,6101,Female,f5aa7b40a32f702b9764e802f001f57d,36
1,1,27,82,10,98,4,8306,Female,f5aa7b40a32f702b9764e802f001f57d,81
1,1,28,55,19,63,12,11842,Female,f5aa7b40a32f702b9764e802f001f57d,52
1,1,29,19,64,13,70,7461,Female,f5aa7b40a32f702b9764e802f001f57d,17
1,1,30,64,55,71,60,8072,Female,f5aa7b40a32f702b9764e802f001f57d,66
1,1,31,64,10,64,9,5185,Female,f5aa7b40a32f702b9764e802f001f57d,61
1,1,32,28,55,27,57,6767,Female,f5aa7b40a32f702b9764e802f001f57d,26
1,1,33,64,37,66,44,6614,Female,f5aa7b40a32f702b9764e802f001f57d,64
1,1,34,37,64,33,61,7876,Female,f5aa7b40a32f702b9764e802f001f57d,37
1,1,35,64,64,60,59,4108,Female,f5aa7b40a32f702b9764e802f001f57d,67
1,1,36,10,37,3,40,5014,Female,f5aa7b40a32f702b9764e802f001f57d,4
1,1,37,55,37,32,39,9146,Female,f5aa7b40a32f702b9764e802f001f57d,54
1,1,38,46,46,40,46,7543,Female,f5aa7b40a32f702b9764e802f001f57d,45
1,1,39,19,28,27,28,8523,Female,f5aa7b40a32f702b9764e802f001f57d,13
1,1,40,91,91,90,94,6138,Female,f5aa7b40a32f702b9764e802f001f57d,100
1,1,41,73,73,84,87,66047,Female,f5aa7b40a32f702b9764e802f001f57d,78
1,1,42,73,82,73,67,6250,Female,f5aa7b40a32f702b9764e802f001f57d,79
1,1,43,82,73,82,69,6031,Female,f5aa7b40a32f702b9764e802f001f57d,88
1,1,44,46,91,58,90,7908,Female,f5aa7b40a32f702b9764e802f001f57d,50
1,1,45,64,73,47,64,5935,Female,f5aa7b40a32f702b9764e802f001f57d,68
1,1,46,19,19,18,20,9285,Female,f5aa7b40a32f702b9764e802f001f57d,12
1,1,47,91,82,97,59,6600,Female,f5aa7b40a32f702b9764e802f001f57d,99
1,1,48,10,64,10,60,5077,Female,f5aa7b40a32f702b9764e802f001f57d,7
1,1,49,10,82,10,74,4618,Female,f5aa7b40a32f702b9764e802f001f57d,9
1,1,50,46,28,39,15,7855,Female,f5aa7b40a32f702b9764e802f001f57d,43
1,1,51,73,91,73,90,8850,Female,f5aa7b40a32f702b9764e802f001f57d,80
1,1,52,73,10,79,6,5083,Female,f5aa7b40a32f702b9764e802f001f57d,71
1,1,53,91,64,100,58,3971,Female,f5aa7b40a32f702b9764e802f001f57d,97
1,1,54,46,82,67,81,4177,Female,f5aa7b40a32f702b9764e802f001f57d,49
1,1,55,19,46,28,50,2842,Female,f5aa7b40a32f702b9764e802f001f57d,15
1,1,56,19,10,7,14,5308,Female,f5aa7b40a32f702b9764e802f001f57d,11
1,1,57,91,73,100,62,4254,Female,f5aa7b40a32f702b9764e802f001f57d,98
1,1,58,37,10,31,13,25141,Female,f5aa7b40a32f702b9764e802f001f57d,31
1,1,59,73,64,79,62,3516,Female,f5aa7b40a32f702b9764e802f001f57d,77
1,1,60,19,91,14,88,3812,Female,f5aa7b40a32f702b9764e802f001f57d,20
1,1,61,82,91,85,92,4695,Female,f5aa7b40a32f702b9764e802f001f57d,90
1,1,62,10,10,6,10,9079,Female,f5aa7b40a32f702b9764e802f001f57d,1
1,1,63,55,28,44,25,7247,Female,f5aa7b40a32f702b9764e802f001f57d,53
1,1,64,64,28,66,27,5564,Female,f5aa7b40a32f702b9764e802f001f57d,63
1,1,65,46,73,58,75,4581,Female,f5aa7b40a32f702b9764e802f001f57d,48
1,1,66,64,46,76,46,6340,Female,f5aa7b40a32f702b9764e802f001f57d,65
1,1,67,64,19,75,42,6099,Female,f5aa7b40a32f702b9764e802f001f57d,62
1,1,68,10,46,11,38,7112,Female,f5aa7b40a32f702b9764e802f001f57d,5
1,1,69,37,82,43,86,6068,Female,f5aa7b40a32f702b9764e802f001f57d,39
1,1,70,19,73,17,64,6196,Female,f5aa7b40a32f702b9764e802f001f57d,18
1,1,71,28,82,29,79,6930,Female,f5aa7b40a32f702b9764e802f001f57d,29
1,1,72,28,28,20,14,11182,Female,f5aa7b40a32f702b9764e802f001f57d,23
1,1,73,64,82,60,80,7827,Female,f5aa7b40a32f702b9764e802f001f57d,69
1,1,74,19,55,20,57,4561,Female,f5aa7b40a32f702b9764e802f001f57d,16
1,1,75,73,19,87,18,7393,Female,f5aa7b40a32f702b9764e802f001f57d,72
1,1,76,46,37,62,23,3606,Female,f5aa7b40a32f702b9764e802f001f57d,44
1,1,77,28,19,10,16,5187,Female,f5aa7b40a32f702b9764e802f001f57d,22
1,1,78,73,46,84,50,4416,Female,f5aa7b40a32f702b9764e802f001f57d,75
1,1,79,46,55,37,50,2757,Female,f5aa7b40a32f702b9764e802f001f57d,46
1,1,80,10,73,26,69,3146,Female,f5aa7b40a32f702b9764e802f001f57d,8
1,1,81,64,91,63,89,5691,Female,f5aa7b40a32f702b9764e802f001f57d,70
1,1,82,55,55,62,54,5990,Female,f5aa7b40a32f702b9764e802f001f57d,56
1,1,83,28,37,33,37,4540,Female,f5aa7b40a32f702b9764e802f001f57d,24
1,1,84,37,91,42,88,3900,Female,f5aa7b40a32f702b9764e802f001f57d,40
1,1,85,91,55,93,44,6422,Female,f5aa7b40a32f702b9764e802f001f57d,96
1,1,86,28,10,18,6,5388,Female,f5aa7b40a32f702b9764e802f001f57d,21
1,1,87,82,28,87,32,5870,Female,f5aa7b40a32f702b9764e802f001f57d,83
1,1,88,73,28,89,20,3067,Female,f5aa7b40a32f702b9764e802f001f57d,73
1,1,89,37,73,35,78,3372,Female,f5aa7b40a32f702b9764e802f001f57d,38
1,1,90,46,64,59,62,6782,Female,f5aa7b40a32f702b9764e802f001f57d,47
1,1,91,28,64,39,63,3261,Female,f5aa7b40a32f702b9764e802f001f57d,27
1,1,92,28,73,26,72,5094,Female,f5aa7b40a32f702b9764e802f001f57d,28
1,1,93,91,37,91,42,4152,Female,f5aa7b40a32f702b9764e802f001f57d,94
1,1,94,55,10,82,10,4940,Female,f5aa7b40a32f702b9764e802f001f57d,51
1,1,95,37,19,57,17,5989,Female,f5aa7b40a32f702b9764e802f001f57d,32
1,1,96,37,46,36,47,5432,Female,f5aa7b40a32f702b9764e802f001f57d,35
1,1,97,55,46,53,50,5005,Female,f5aa7b40a32f702b9764e802f001f57d,55
1,1,98,46,19,46,16,4019,Female,f5aa7b40a32f702b9764e802f001f57d,42
1,1,99,91,46,97,50,2575,Female,f5aa7b40a32f702b9764e802f001f57d,95
1,2,0,64,91,60,63,6679,Female,f5aa7b40a32f702b9764e802f001f57d,70
1,2,1,46,73,59,54,5841,Female,f5aa7b40a32f702b9764e802f001f57d,48
1,2,2,64,37,50,43,3941,Female,f5aa7b40a32f702b9764e802f001f57d,64
1,2,3,73,73,66,65,7271,Female,f5aa7b40a32f702b9764e802f001f57d,78
1,2,4,55,55,57,50,2591,Female,f5aa7b40a32f702b9764e802f001f57d,56
1,2,5,73,37,69,38,5360,Female,f5aa7b40a32f702b9764e802f001f57d,74
1,2,6,73,28,82,29,6423,Female,f5aa7b40a32f702b9764e802f001f57d,73
1,2,7,55,10,77,16,7467,Female,f5aa7b40a32f702b9764e802f001f57d,51
1,2,8,55,19,66,14,4871,Female,f5aa7b40a32f702b9764e802f001f57d,52
1,2,9,19,19,10,11,7486,Female,f5aa7b40a32f702b9764e802f001f57d,12
1,2,10,73,55,83,50,2327,Female,f5aa7b40a32f702b9764e802f001f57d,76
1,2,11,91,10,96,10,4180,Female,f5aa7b40a32f702b9764e802f001f57d,91
1,2,12,19,55,32,67,9631,Female,f5aa7b40a32f702b9764e802f001f57d,16
1,2,13,28,82,27,88,11007,Female,f5aa7b40a32f702b9764e802f001f57d,29
1,2,14,10,82,6,91,7154,Female,f5aa7b40a32f702b9764e802f001f57d,9
1,2,15,55,91,62,92,4841,Female,f5aa7b40a32f702b9764e802f001f57d,60
1,2,16,82,55,86,61,4283,Female,f5aa7b40a32f702b9764e802f001f57d,86
1,2,17,82,10,98,13,10874,Female,f5aa7b40a32f702b9764e802f001f57d,81
1,2,18,10,19,30,19,5548,Female,f5aa7b40a32f702b9764e802f001f57d,2
1,2,19,46,46,40,40,6812,Female,f5aa7b40a32f702b9764e802f001f57d,45
1,2,20,64,19,64,26,7643,Female,f5aa7b40a32f702b9764e802f001f57d,62
1,2,21,82,28,75,26,5482,Female,f5aa7b40a32f702b9764e802f001f57d,83
1,2,22,10,28,11,23,7278,Female,f5aa7b40a32f702b9764e802f001f57d,3
1,2,23,28,91,15,89,7199,Female,f5aa7b40a32f702b9764e802f001f57d,30
1,2,24,10,37,23,37,4268,Female,f5aa7b40a32f702b9764e802f001f57d,4
1,2,25,91,46,100,44,4453,Female,f5aa7b40a32f702b9764e802f001f57d,95
1,2,26,37,91,32,98,6774,Female,f5aa7b40a32f702b9764e802f001f57d,40
1,2,27,91,19,94,21,4255,Female,f5aa7b40a32f702b9764e802f001f57d,92
1,2,28,64,82,79,81,6416,Female,f5aa7b40a32f702b9764e802f001f57d,69
1,2,29,37,64,41,61,4139,Female,f5aa7b40a32f702b9764e802f001f57d,37
1,2,30,91,37,72,39,5131,Female,f5aa7b40a32f702b9764e802f001f57d,94
1,2,31,64,73,69,67,4542,Female,f5aa7b40a32f702b9764e802f001f57d,68
1,2,32,37,19,28,20,6990,Female,f5aa7b40a32f702b9764e802f001f57d,32
1,2,33,37,10,10,10,7722,Female,f5aa7b40a32f702b9764e802f001f57d,31
1,2,34,46,37,42,41,4588,Female,f5aa7b40a32f702b9764e802f001f57d,44
1,2,35,91,73,87,82,4683,Female,f5aa7b40a32f702b9764e802f001f57d,98
1,2,36,82,73,86,76,7368,Female,f5aa7b40a32f702b9764e802f001f57d,88
1,2,37,19,37,11,33,4658,Female,f5aa7b40a32f702b9764e802f001f57d,14
1,2,38,46,10,48,6,10034,Female,f5aa7b40a32f702b9764e802f001f57d,41
1,2,39,73,19,77,19,4917,Female,f5aa7b40a32f702b9764e802f001f57d,72
1,2,40,28,28,22,23,4782,Female,f5aa7b40a32f702b9764e802f001f57d,23
1,2,41,37,55,38,57,5433,Female,f5aa7b40a32f702b9764e802f001f57d,36
1,2,42,64,46,57,42,3710,Female,f5aa7b40a32f702b9764e802f001f57d,65
1,2,43,73,82,64,81,4352,Female,f5aa7b40a32f702b9764e802f001f57d,79
1,2,44,55,82,70,86,4209,Female,f5aa7b40a32f702b9764e802f001f57d,59
1,2,45,82,82,68,87,5504,Female,f5aa7b40a32f702b9764e802f001f57d,89
1,2,46,91,55,97,43,3980,Female,f5aa7b40a32f702b9764e802f001f57d,96
1,2,47,19,10,3,15,5168,Female,f5aa7b40a32f702b9764e802f001f57d,11
1,2,48,91,28,95,15,8461,Female,f5aa7b40a32f702b9764e802f001f57d,93
1,2,49,64,64,60,62,5452,Female,f5aa7b40a32f702b9764e802f001f57d,67
1,2,50,19,46,22,50,3811,Female,f5aa7b40a32f702b9764e802f001f57d,15
1,2,51,82,19,80,29,5998,Female,f5aa7b40a32f702b9764e802f001f57d,82
1,2,52,19,64,22,64,3306,Female,f5aa7b40a32f702b9764e802f001f57d,17
1,2,53,91,82,89,84,6249,Female,f5aa7b40a32f702b9764e802f001f57d,99
1,2,54,55,73,58,69,4506,Female,f5aa7b40a32f702b9764e802f001f57d,58
1,2,55,28,55,38,56,4534,Female,f5aa7b40a32f702b9764e802f001f57d,26
1,2,56,19,73,29,75,7953,Female,f5aa7b40a32f702b9764e802f001f57d,18
1,2,57,64,55,39,61,6044,Female,f5aa7b40a32f702b9764e802f001f57d,66
1,2,58,10,91,11,90,3651,Female,f5aa7b40a32f702b9764e802f001f57d,10
1,2,59,46,55,59,59,4438,Female,f5aa7b40a32f702b9764e802f001f57d,46
1,2,60,28,19,22,19,3490,Female,f5aa7b40a32f702b9764e802f001f57d,22
1,2,61,46,64,37,61,3045,Female,f5aa7b40a32f702b9764e802f001f57d,47
1,2,62,73,64,72,67,3238,Female,f5aa7b40a32f702b9764e802f001f57d,77
1,2,63,10,10,1,7,7136,Female,f5aa7b40a32f702b9764e802f001f57d,1
1,2,64,37,46,29,25,7577,Female,f5aa7b40a32f702b9764e802f001f57d,35
1,2,65,28,10,19,15,4062,Female,f5aa7b40a32f702b9764e802f001f57d,21
1,2,66,10,64,13,67,4588,Female,f5aa7b40a32f702b9764e802f001f57d,7
1,2,67,82,91,97,97,4124,Female,f5aa7b40a32f702b9764e802f001f57d,90
1,2,68,37,28,23,23,3740,Female,f5aa7b40a32f702b9764e802f001f57d,33
1,2,69,19,28,24,24,3508,Female,f5aa7b40a32f702b9764e802f001f57d,13
1,2,70,73,10,72,20,3708,Female,f5aa7b40a32f702b9764e802f001f57d,71
1,2,71,64,28,74,31,3785,Female,f5aa7b40a32f702b9764e802f001f57d,63
1,2,72,37,37,30,38,4256,Female,f5aa7b40a32f702b9764e802f001f57d,34
1,2,73,55,37,61,42,4587,Female,f5aa7b40a32f702b9764e802f001f57d,54
1,2,74,82,37,92,40,5070,Female,f5aa7b40a32f702b9764e802f001f57d,84
1,2,75,82,46,78,42,3953,Female,f5aa7b40a32f702b9764e802f001f57d,85
1,2,76,46,91,33,94,4898,Female,f5aa7b40a32f702b9764e802f001f57d,50
1,2,77,91,64,85,81,6802,Female,f5aa7b40a32f702b9764e802f001f57d,97
1,2,78,10,73,1,70,6161,Female,f5aa7b40a32f702b9764e802f001f57d,8
1,2,79,37,82,30,85,5514,Female,f5aa7b40a32f702b9764e802f001f57d,39
1,2,80,10,46,9,50,3305,Female,f5aa7b40a32f702b9764e802f001f57d,5
1,2,81,37,73,32,63,6603,Female,f5aa7b40a32f702b9764e802f001f57d,38
1,2,82,28,37,29,46,4249,Female,f5aa7b40a32f702b9764e802f001f57d,24
1,2,83,28,73,29,67,4357,Female,f5aa7b40a32f702b9764e802f001f57d,28
1,2,84,82,64,100,68,3807,Female,f5aa7b40a32f702b9764e802f001f57d,87
1,2,85,73,46,71,44,3921,Female,f5aa7b40a32f702b9764e802f001f57d,75
1,2,86,46,82,47,74,4402,Female,f5aa7b40a32f702b9764e802f001f57d,49
1,2,86,46,82,47,74,4402,Female,f5aa7b40a32f702b9764e802f001f57d,49
1,2,87,10,55,11,60,4261,Female,f5aa7b40a32f702b9764e802f001f57d,6
1,2,88,46,28,37,29,5182,Female,f5aa7b40a32f702b9764e802f001f57d,43
1,2,89,73,91,67,90,4481,Female,f5aa7b40a32f702b9764e802f001f57d,80
1,2,90,28,46,32,45,4747,Female,f5aa7b40a32f702b9764e802f001f57d,25
1,2,91,55,46,50,50,2068,Female,f5aa7b40a32f702b9764e802f001f57d,55
1,2,92,55,64,55,59,3771,Female,f5aa7b40a32f702b9764e802f001f57d,57
1,2,93,55,28,58,42,5534,Female,f5aa7b40a32f702b9764e802f001f57d,53
1,2,94,64,10,66,7,5135,Female,f5aa7b40a32f702b9764e802f001f57d,61
1,2,95,28,64,21,66,3310,Female,f5aa7b40a32f702b9764e802f001f57d,27
1,2,96,46,19,38,33,4867,Female,f5aa7b40a32f702b9764e802f001f57d,42
1,2,97,19,82,11,83,3297,Female,f5aa7b40a32f702b9764e802f001f57d,19
1,2,98,91,91,100,96,5512,Female,f5aa7b40a32f702b9764e802f001f57d,100
1,2,99,19,91,19,98,3478,Female,f5aa7b40a32f702b9764e802f001f57d,20
1,1,0,46,19,69,32,6041,Male,d68bfeec3701079267de25c9839a2152,42
1,1,1,82,19,64,31,4026,Male,d68bfeec3701079267de25c9839a2152,82
1,1,2,10,28,11,25,11075,Male,d68bfeec3701079267de25c9839a2152,3
1,1,3,19,55,35,55,6305,Male,d68bfeec3701079267de25c9839a2152,16
1,1,4,46,82,36,82,5682,Male,d68bfeec3701079267de25c9839a2152,49
1,1,5,46,10,38,18,10147,Male,d68bfeec3701079267de25c9839a2152,41
1,1,6,91,82,84,38,5927,Male,d68bfeec3701079267de25c9839a2152,99
1,1,7,91,73,76,78,6700,Male,d68bfeec3701079267de25c9839a2152,98
1,1,8,82,73,79,79,4452,Male,d68bfeec3701079267de25c9839a2152,88
1,1,9,64,55,66,64,9433,Male,d68bfeec3701079267de25c9839a2152,66
1,1,10,82,91,86,86,6471,Male,d68bfeec3701079267de25c9839a2152,90
1,1,11,64,64,73,76,7755,Male,d68bfeec3701079267de25c9839a2152,67
1,1,12,10,46,11,37,12471,Male,d68bfeec3701079267de25c9839a2152,5
1,1,13,82,64,86,83,6127,Male,d68bfeec3701079267de25c9839a2152,87
1,1,14,10,73,22,87,6818,Male,d68bfeec3701079267de25c9839a2152,8
1,1,15,28,55,25,71,6922,Male,d68bfeec3701079267de25c9839a2152,26
1,1,16,64,73,83,82,4792,Male,d68bfeec3701079267de25c9839a2152,68
1,1,17,55,73,70,83,4044,Male,d68bfeec3701079267de25c9839a2152,58
1,1,18,91,37,71,34,6139,Male,d68bfeec3701079267de25c9839a2152,94
1,1,19,37,73,33,72,6131,Male,d68bfeec3701079267de25c9839a2152,38
1,1,20,64,10,66,18,9326,Male,d68bfeec3701079267de25c9839a2152,61
1,1,21,19,73,19,76,4680,Male,d68bfeec3701079267de25c9839a2152,18
1,1,22,73,64,75,76,6743,Male,d68bfeec3701079267de25c9839a2152,77
1,1,23,55,19,62,21,4555,Male,d68bfeec3701079267de25c9839a2152,52
1,1,24,91,55,82,79,5441,Male,d68bfeec3701079267de25c9839a2152,96
1,1,25,82,55,63,50,2681,Male,d68bfeec3701079267de25c9839a2152,86
1,1,26,46,91,43,93,5912,Male,d68bfeec3701079267de25c9839a2152,50
1,1,27,28,19,19,26,6089,Male,d68bfeec3701079267de25c9839a2152,22
1,1,28,91,91,82,84,5618,Male,d68bfeec3701079267de25c9839a2152,100
1,1,29,28,37,12,30,6553,Male,d68bfeec3701079267de25c9839a2152,24
1,1,30,73,91,85,85,4049,Male,d68bfeec3701079267de25c9839a2152,80
1,1,31,55,37,53,33,6553,Male,d68bfeec3701079267de25c9839a2152,54
1,1,32,55,46,50,50,2318,Male,d68bfeec3701079267de25c9839a2152,55
1,1,33,55,28,50,41,4692,Male,d68bfeec3701079267de25c9839a2152,53
1,1,34,37,55,50,58,5396,Male,d68bfeec3701079267de25c9839a2152,36
1,1,35,19,64,26,58,5749,Male,d68bfeec3701079267de25c9839a2152,17
1,1,36,19,82,17,88,4584,Male,d68bfeec3701079267de25c9839a2152,19
1,1,37,28,28,23,30,4602,Male,d68bfeec3701079267de25c9839a2152,23
1,1,38,73,73,76,82,6111,Male,d68bfeec3701079267de25c9839a2152,78
1,1,39,55,10,74,15,5794,Male,d68bfeec3701079267de25c9839a2152,51
1,1,40,73,46,80,35,4734,Male,d68bfeec3701079267de25c9839a2152,75
1,1,41,82,10,89,16,5009,Male,d68bfeec3701079267de25c9839a2152,81
1,1,42,91,10,89,16,4693,Male,d68bfeec3701079267de25c9839a2152,91
1,1,43,10,91,6,97,5599,Male,d68bfeec3701079267de25c9839a2152,10
1,1,44,73,28,77,42,6110,Male,d68bfeec3701079267de25c9839a2152,73
1,1,45,64,28,74,30,4172,Male,d68bfeec3701079267de25c9839a2152,63
1,1,46,64,91,82,84,4668,Male,d68bfeec3701079267de25c9839a2152,70
1,1,47,19,37,17,36,5794,Male,d68bfeec3701079267de25c9839a2152,14
1,1,48,19,19,21,21,5530,Male,d68bfeec3701079267de25c9839a2152,12
1,1,49,19,28,24,32,7598,Male,d68bfeec3701079267de25c9839a2152,13
1,1,50,73,19,90,19,5842,Male,d68bfeec3701079267de25c9839a2152,72
1,1,51,37,64,50,50,2185,Male,d68bfeec3701079267de25c9839a2152,37
1,1,52,19,91,15,89,4476,Male,d68bfeec3701079267de25c9839a2152,20
1,1,53,91,19,91,19,4245,Male,d68bfeec3701079267de25c9839a2152,92
1,1,54,19,46,12,78,6188,Male,d68bfeec3701079267de25c9839a2152,15
1,1,55,10,10,3,16,9256,Male,d68bfeec3701079267de25c9839a2152,1
1,1,56,46,55,14,61,4741,Male,d68bfeec3701079267de25c9839a2152,46
1,1,57,37,19,16,13,4886,Male,d68bfeec3701079267de25c9839a2152,32
1,1,58,10,64,15,77,6805,Male,d68bfeec3701079267de25c9839a2152,7
1,1,59,37,37,28,44,3779,Male,d68bfeec3701079267de25c9839a2152,34
1,1,60,64,82,51,85,10271,Male,d68bfeec3701079267de25c9839a2152,69
1,1,61,64,19,50,32,2917,Male,d68bfeec3701079267de25c9839a2152,62
1,1,62,28,46,45,42,4334,Male,d68bfeec3701079267de25c9839a2152,25
1,1,63,55,55,53,64,5354,Male,d68bfeec3701079267de25c9839a2152,56
1,1,64,73,37,57,31,5304,Male,d68bfeec3701079267de25c9839a2152,74
1,1,65,55,82,66,69,5492,Male,d68bfeec3701079267de25c9839a2152,59
1,1,66,82,82,80,77,5402,Male,d68bfeec3701079267de25c9839a2152,89
1,1,67,46,46,62,61,2917,Male,d68bfeec3701079267de25c9839a2152,45
1,1,68,82,37,74,44,3631,Male,d68bfeec3701079267de25c9839a2152,84
1,1,69,28,64,29,60,3614,Male,d68bfeec3701079267de25c9839a2152,27
1,1,70,28,91,26,87,5051,Male,d68bfeec3701079267de25c9839a2152,30
1,1,71,46,73,43,72,5586,Male,d68bfeec3701079267de25c9839a2152,48
1,1,72,73,82,65,80,5469,Male,d68bfeec3701079267de25c9839a2152,79
1,1,73,73,55,73,54,5214,Male,d68bfeec3701079267de25c9839a2152,76
1,1,74,10,19,12,17,8514,Male,d68bfeec3701079267de25c9839a2152,2
1,1,75,46,64,79,82,9974,Male,d68bfeec3701079267de25c9839a2152,47
1,1,76,64,46,72,61,4333,Male,d68bfeec3701079267de25c9839a2152,65
1,1,77,91,28,82,26,3911,Male,d68bfeec3701079267de25c9839a2152,93
1,1,78,10,82,17,88,6772,Male,d68bfeec3701079267de25c9839a2152,9
1,1,79,91,46,79,50,2992,Male,d68bfeec3701079267de25c9839a2152,95
1,1,80,46,28,37,29,5049,Male,d68bfeec3701079267de25c9839a2152,43
1,1,81,37,28,30,32,4345,Male,d68bfeec3701079267de25c9839a2152,33
1,1,82,55,91,38,84,4303,Male,d68bfeec3701079267de25c9839a2152,60
1,1,83,73,10,39,23,5934,Male,d68bfeec3701079267de25c9839a2152,71
1,1,84,10,55,22,64,6418,Male,d68bfeec3701079267de25c9839a2152,6
1,1,85,37,10,28,17,8291,Male,d68bfeec3701079267de25c9839a2152,31
1,1,86,82,28,85,29,4292,Male,d68bfeec3701079267de25c9839a2152,83
1,1,87,19,10,20,19,4014,Male,d68bfeec3701079267de25c9839a2152,11
1,1,88,46,37,36,40,3820,Male,d68bfeec3701079267de25c9839a2152,44
1,1,89,64,37,75,41,4425,Male,d68bfeec3701079267de25c9839a2152,64
1,1,90,82,46,67,46,4553,Male,d68bfeec3701079267de25c9839a2152,85
1,1,91,28,10,21,12,7081,Male,d68bfeec3701079267de25c9839a2152,21
1,1,92,37,46,28,59,3526,Male,d68bfeec3701079267de25c9839a2152,35
1,1,93,37,82,32,71,126791,Male,d68bfeec3701079267de25c9839a2152,39
1,1,94,37,91,36,88,3875,Male,d68bfeec3701079267de25c9839a2152,40
1,1,95,91,64,79,59,4514,Male,d68bfeec3701079267de25c9839a2152,97
1,1,96,10,37,19,40,3461,Male,d68bfeec3701079267de25c9839a2152,4
1,1,97,28,73,29,66,3645,Male,d68bfeec3701079267de25c9839a2152,28
1,1,98,28,82,30,73,11766,Male,d68bfeec3701079267de25c9839a2152,29
1,1,99,55,64,56,59,7018,Male,d68bfeec3701079267de25c9839a2152,57
1,2,0,55,37,33,50,4597,Male,d68bfeec3701079267de25c9839a2152,54
1,2,1,73,73,65,65,5232,Male,d68bfeec3701079267de25c9839a2152,78
1,2,2,46,10,38,34,4443,Male,d68bfeec3701079267de25c9839a2152,41
1,2,3,55,73,45,66,5902,Male,d68bfeec3701079267de25c9839a2152,58
1,2,4,91,73,70,68,4174,Male,d68bfeec3701079267de25c9839a2152,98
1,2,5,64,82,67,70,3996,Male,d68bfeec3701079267de25c9839a2152,69
1,2,6,46,19,67,33,6070,Male,d68bfeec3701079267de25c9839a2152,42
1,2,7,82,55,64,45,4144,Male,d68bfeec3701079267de25c9839a2152,86
1,2,8,73,10,76,21,4526,Male,d68bfeec3701079267de25c9839a2152,71
1,2,9,91,19,81,23,4428,Male,d68bfeec3701079267de25c9839a2152,92
1,2,10,55,91,81,82,3535,Male,d68bfeec3701079267de25c9839a2152,60
1,2,11,91,46,73,39,4995,Male,d68bfeec3701079267de25c9839a2152,95
1,2,12,37,46,30,42,5059,Male,d68bfeec3701079267de25c9839a2152,35
1,2,13,28,46,27,44,4788,Male,d68bfeec3701079267de25c9839a2152,25
1,2,14,73,37,69,42,8147,Male,d68bfeec3701079267de25c9839a2152,74
1,2,15,10,82,14,86,5684,Male,d68bfeec3701079267de25c9839a2152,9
1,2,16,10,46,15,50,2514,Male,d68bfeec3701079267de25c9839a2152,5
1,2,17,28,91,10,88,4137,Male,d68bfeec3701079267de25c9839a2152,30
1,2,18,46,37,32,41,4263,Male,d68bfeec3701079267de25c9839a2152,44
1,2,19,10,91,12,81,4983,Male,d68bfeec3701079267de25c9839a2152,10
1,2,20,73,46,70,50,3494,Male,d68bfeec3701079267de25c9839a2152,75
1,2,21,19,73,33,71,5069,Male,d68bfeec3701079267de25c9839a2152,18
1,2,22,64,19,70,29,5083,Male,d68bfeec3701079267de25c9839a2152,62
1,2,23,64,10,75,20,4765,Male,d68bfeec3701079267de25c9839a2152,61
1,2,24,64,55,67,59,5117,Male,d68bfeec3701079267de25c9839a2152,66
1,2,25,73,82,78,78,6656,Male,d68bfeec3701079267de25c9839a2152,79
1,2,26,55,82,76,73,4231,Male,d68bfeec3701079267de25c9839a2152,59
1,2,27,10,37,23,50,4088,Male,d68bfeec3701079267de25c9839a2152,4
1,2,28,46,64,37,63,4398,Male,d68bfeec3701079267de25c9839a2152,47
1,2,29,46,82,54,61,6347,Male,d68bfeec3701079267de25c9839a2152,49
1,2,30,64,64,50,63,2482,Male,d68bfeec3701079267de25c9839a2152,67
1,2,31,19,10,12,19,5049,Male,d68bfeec3701079267de25c9839a2152,11
1,2,32,28,82,19,76,4027,Male,d68bfeec3701079267de25c9839a2152,29
1,2,33,19,64,21,75,4600,Male,d68bfeec3701079267de25c9839a2152,17
1,2,34,55,64,40,58,4086,Male,d68bfeec3701079267de25c9839a2152,57
1,2,35,46,73,38,67,4614,Male,d68bfeec3701079267de25c9839a2152,48
1,2,36,64,46,58,41,3719,Male,d68bfeec3701079267de25c9839a2152,65
1,2,37,19,46,24,42,4480,Male,d68bfeec3701079267de25c9839a2152,15
1,2,38,91,37,90,43,14126,Male,d68bfeec3701079267de25c9839a2152,94
1,2,39,37,55,42,65,3667,Male,d68bfeec3701079267de25c9839a2152,36
1,2,40,82,46,71,59,7149,Male,d68bfeec3701079267de25c9839a2152,85
1,2,41,82,91,88,85,4767,Male,d68bfeec3701079267de25c9839a2152,90
1,2,42,28,19,21,21,4170,Male,d68bfeec3701079267de25c9839a2152,22
1,2,43,64,37,35,34,8138,Male,d68bfeec3701079267de25c9839a2152,64
1,2,44,10,73,16,79,4454,Male,d68bfeec3701079267de25c9839a2152,8
1,2,45,82,64,79,70,4361,Male,d68bfeec3701079267de25c9839a2152,87
1,2,46,19,82,18,79,3906,Male,d68bfeec3701079267de25c9839a2152,19
1,2,47,37,19,18,25,4653,Male,d68bfeec3701079267de25c9839a2152,32
1,2,48,37,10,17,13,10384,Male,d68bfeec3701079267de25c9839a2152,31
1,2,49,28,64,19,64,5162,Male,d68bfeec3701079267de25c9839a2152,27
1,2,50,28,73,18,76,5722,Male,d68bfeec3701079267de25c9839a2152,28
1,2,51,19,55,27,65,3576,Male,d68bfeec3701079267de25c9839a2152,16
1,2,52,55,28,37,35,3434,Male,d68bfeec3701079267de25c9839a2152,53
1,2,53,37,91,35,88,5073,Male,d68bfeec3701079267de25c9839a2152,40
1,2,54,64,73,60,63,6189,Male,d68bfeec3701079267de25c9839a2152,68
1,2,55,19,91,19,88,4515,Male,d68bfeec3701079267de25c9839a2152,20
1,2,56,91,91,87,87,6552,Male,d68bfeec3701079267de25c9839a2152,100
1,2,57,82,19,87,17,6366,Male,d68bfeec3701079267de25c9839a2152,82
1,2,58,82,73,85,81,5075,Male,d68bfeec3701079267de25c9839a2152,88
1,2,59,91,55,79,58,4695,Male,d68bfeec3701079267de25c9839a2152,96
1,2,60,37,82,35,80,4741,Male,d68bfeec3701079267de25c9839a2152,39
1,2,61,10,64,20,67,3934,Male,d68bfeec3701079267de25c9839a2152,7
1,2,62,37,64,38,63,4239,Male,d68bfeec3701079267de25c9839a2152,37
1,2,63,64,28,43,26,4617,Male,d68bfeec3701079267de25c9839a2152,63
1,2,64,37,37,39,33,3994,Male,d68bfeec3701079267de25c9839a2152,34
1,2,65,91,64,81,66,3614,Male,d68bfeec3701079267de25c9839a2152,97
1,2,66,19,28,18,21,3834,Male,d68bfeec3701079267de25c9839a2152,13
1,2,67,82,82,82,78,4340,Male,d68bfeec3701079267de25c9839a2152,89
1,2,68,55,10,68,23,4605,Male,d68bfeec3701079267de25c9839a2152,51
1,2,69,46,46,60,34,4162,Male,d68bfeec3701079267de25c9839a2152,45
1,2,70,73,64,59,63,4124,Male,d68bfeec3701079267de25c9839a2152,77
1,2,71,64,91,71,85,3957,Male,d68bfeec3701079267de25c9839a2152,70
1,2,72,91,82,59,66,4430,Male,d68bfeec3701079267de25c9839a2152,99
1,2,73,19,37,30,36,3021,Male,d68bfeec3701079267de25c9839a2152,14
1,2,74,55,55,37,40,3092,Male,d68bfeec3701079267de25c9839a2152,56
1,2,75,37,28,36,33,3239,Male,d68bfeec3701079267de25c9839a2152,33
1,2,76,73,19,73,29,13530,Male,d68bfeec3701079267de25c9839a2152,72
1,2,77,28,10,19,21,4281,Male,d68bfeec3701079267de25c9839a2152,21
1,2,78,73,28,73,30,3232,Male,d68bfeec3701079267de25c9839a2152,73
1,2,79,46,55,46,64,6193,Male,d68bfeec3701079267de25c9839a2152,46
1,2,80,46,28,40,35,4123,Male,d68bfeec3701079267de25c9839a2152,43
1,2,81,10,55,22,58,4045,Male,d68bfeec3701079267de25c9839a2152,6
1,2,82,10,19,17,28,6257,Male,d68bfeec3701079267de25c9839a2152,2
1,2,83,37,73,29,32,9780,Male,d68bfeec3701079267de25c9839a2152,38
1,2,84,55,19,50,38,14177,Male,d68bfeec3701079267de25c9839a2152,52
1,2,85,91,28,84,28,3144,Male,d68bfeec3701079267de25c9839a2152,93
1,2,86,10,10,12,17,7211,Male,d68bfeec3701079267de25c9839a2152,1
1,2,87,73,91,71,82,3824,Male,d68bfeec3701079267de25c9839a2152,80
1,2,88,82,28,79,29,4396,Male,d68bfeec3701079267de25c9839a2152,83
1,2,89,19,19,19,20,5401,Male,d68bfeec3701079267de25c9839a2152,12
1,2,90,46,91,70,78,6441,Male,d68bfeec3701079267de25c9839a2152,50
1,2,91,28,37,34,38,3253,Male,d68bfeec3701079267de25c9839a2152,24
1,2,92,73,55,68,59,4602,Male,d68bfeec3701079267de25c9839a2152,76
1,2,93,10,28,27,34,5147,Male,d68bfeec3701079267de25c9839a2152,3
1,2,94,28,28,29,32,5562,Male,d68bfeec3701079267de25c9839a2152,23
1,2,95,82,37,79,30,4480,Male,d68bfeec3701079267de25c9839a2152,84
1,2,96,55,46,55,44,5054,Male,d68bfeec3701079267de25c9839a2152,55
1,2,97,91,10,83,14,5304,Male,d68bfeec3701079267de25c9839a2152,91
1,2,98,28,55,33,75,3825,Male,d68bfeec3701079267de25c9839a2152,26
1,2,99,82,10,89,15,6196,Male,d68bfeec3701079267de25c9839a2152,81
1,1,0,46,91,50,50,50749,Male,aef6eded2f6f5c8c1118f5bc10012976,50
1,1,1,91,19,67,18,9820,Male,aef6eded2f6f5c8c1118f5bc10012976,92
1,1,2,19,19,1,4,4841,Male,aef6eded2f6f5c8c1118f5bc10012976,12
1,1,3,91,82,91,89,7811,Male,aef6eded2f6f5c8c1118f5bc10012976,99
1,1,4,64,73,63,72,8578,Male,aef6eded2f6f5c8c1118f5bc10012976,68
1,1,5,46,73,62,76,6856,Male,aef6eded2f6f5c8c1118f5bc10012976,48
1,1,6,73,64,61,66,6608,Male,aef6eded2f6f5c8c1118f5bc10012976,77
1,1,7,55,91,72,89,10465,Male,aef6eded2f6f5c8c1118f5bc10012976,60
1,1,8,46,55,63,73,8443,Male,aef6eded2f6f5c8c1118f5bc10012976,46
1,1,9,28,46,35,70,10209,Male,aef6eded2f6f5c8c1118f5bc10012976,25
1,1,10,73,82,84,78,8972,Male,aef6eded2f6f5c8c1118f5bc10012976,79
1,1,11,64,19,67,21,5714,Male,aef6eded2f6f5c8c1118f5bc10012976,62
1,1,12,55,37,58,32,6452,Male,aef6eded2f6f5c8c1118f5bc10012976,54
1,1,13,46,28,55,28,8515,Male,aef6eded2f6f5c8c1118f5bc10012976,43
1,1,14,37,28,22,27,18636,Male,aef6eded2f6f5c8c1118f5bc10012976,33
1,1,15,82,64,63,73,7622,Male,aef6eded2f6f5c8c1118f5bc10012976,87
1,1,16,10,73,13,80,11560,Male,aef6eded2f6f5c8c1118f5bc10012976,8
1,1,17,82,28,40,18,10145,Male,aef6eded2f6f5c8c1118f5bc10012976,83
1,1,18,46,37,30,29,10490,Male,aef6eded2f6f5c8c1118f5bc10012976,44
1,1,19,55,64,45,63,8980,Male,aef6eded2f6f5c8c1118f5bc10012976,57
1,1,20,37,64,44,58,6051,Male,aef6eded2f6f5c8c1118f5bc10012976,37
1,1,21,55,19,47,25,9642,Male,aef6eded2f6f5c8c1118f5bc10012976,52
1,1,22,55,28,45,26,9950,Male,aef6eded2f6f5c8c1118f5bc10012976,53
1,1,23,28,10,19,9,11190,Male,aef6eded2f6f5c8c1118f5bc10012976,21
1,1,24,19,28,17,20,8536,Male,aef6eded2f6f5c8c1118f5bc10012976,13
1,1,25,73,91,62,90,9759,Male,aef6eded2f6f5c8c1118f5bc10012976,80
1,1,26,55,55,61,58,5601,Male,aef6eded2f6f5c8c1118f5bc10012976,56
1,1,27,91,28,85,35,5939,Male,aef6eded2f6f5c8c1118f5bc10012976,93
1,1,28,10,64,10,72,6583,Male,aef6eded2f6f5c8c1118f5bc10012976,7
1,1,29,55,10,74,18,7642,Male,aef6eded2f6f5c8c1118f5bc10012976,51
1,1,30,73,55,61,62,4216,Male,aef6eded2f6f5c8c1118f5bc10012976,76
1,1,31,19,91,24,90,6611,Male,aef6eded2f6f5c8c1118f5bc10012976,20
1,1,32,28,82,29,75,9634,Male,aef6eded2f6f5c8c1118f5bc10012976,29
1,1,33,37,10,20,17,11220,Male,aef6eded2f6f5c8c1118f5bc10012976,31
1,1,34,10,91,7,77,9565,Male,aef6eded2f6f5c8c1118f5bc10012976,10
1,1,35,19,82,14,82,7227,Male,aef6eded2f6f5c8c1118f5bc10012976,19
1,1,36,19,37,20,40,7640,Male,aef6eded2f6f5c8c1118f5bc10012976,14
1,1,37,73,28,78,28,10108,Male,aef6eded2f6f5c8c1118f5bc10012976,73
1,1,38,37,91,71,87,10118,Male,aef6eded2f6f5c8c1118f5bc10012976,40
1,1,39,10,19,11,21,6024,Male,aef6eded2f6f5c8c1118f5bc10012976,2
1,1,40,73,37,65,31,12592,Male,aef6eded2f6f5c8c1118f5bc10012976,74
1,1,41,37,82,36,62,9578,Male,aef6eded2f6f5c8c1118f5bc10012976,39
1,1,42,28,91,35,76,7464,Male,aef6eded2f6f5c8c1118f5bc10012976,30
1,1,43,91,37,91,36,11852,Male,aef6eded2f6f5c8c1118f5bc10012976,94
1,1,44,82,91,97,88,4897,Male,aef6eded2f6f5c8c1118f5bc10012976,90
1,1,45,46,46,37,35,8562,Male,aef6eded2f6f5c8c1118f5bc10012976,45
1,1,46,91,91,90,85,4535,Male,aef6eded2f6f5c8c1118f5bc10012976,100
1,1,47,64,46,61,30,9782,Male,aef6eded2f6f5c8c1118f5bc10012976,65
1,1,48,19,55,29,39,8228,Male,aef6eded2f6f5c8c1118f5bc10012976,16
1,1,49,91,55,80,44,5441,Male,aef6eded2f6f5c8c1118f5bc10012976,96
1,1,50,28,19,27,19,5958,Male,aef6eded2f6f5c8c1118f5bc10012976,22
1,1,51,37,73,30,42,9221,Male,aef6eded2f6f5c8c1118f5bc10012976,38
1,1,52,37,37,35,32,6380,Male,aef6eded2f6f5c8c1118f5bc10012976,34
1,1,53,55,73,42,62,10396,Male,aef6eded2f6f5c8c1118f5bc10012976,58
1,1,54,73,10,81,10,4952,Male,aef6eded2f6f5c8c1118f5bc10012976,71
1,1,55,46,19,86,13,7485,Male,aef6eded2f6f5c8c1118f5bc10012976,42
1,1,56,19,10,43,11,6826,Male,aef6eded2f6f5c8c1118f5bc10012976,11
1,1,57,37,55,34,60,5040,Male,aef6eded2f6f5c8c1118f5bc10012976,36
1,1,58,64,10,37,9,8409,Male,aef6eded2f6f5c8c1118f5bc10012976,61
1,1,59,46,82,41,76,5332,Male,aef6eded2f6f5c8c1118f5bc10012976,49
1,1,60,19,64,19,76,6396,Male,aef6eded2f6f5c8c1118f5bc10012976,17
1,1,61,28,37,22,68,7667,Male,aef6eded2f6f5c8c1118f5bc10012976,24
1,1,62,64,37,40,40,10099,Male,aef6eded2f6f5c8c1118f5bc10012976,64
1,1,63,64,64,66,44,5853,Male,aef6eded2f6f5c8c1118f5bc10012976,67
1,1,64,91,73,89,64,5379,Male,aef6eded2f6f5c8c1118f5bc10012976,98
1,1,65,10,55,6,34,3245,Male,aef6eded2f6f5c8c1118f5bc10012976,6
1,1,66,28,73,24,64,5773,Male,aef6eded2f6f5c8c1118f5bc10012976,28
1,1,67,73,73,81,73,4898,Male,aef6eded2f6f5c8c1118f5bc10012976,78
1,1,68,82,55,78,72,7419,Male,aef6eded2f6f5c8c1118f5bc10012976,86
1,1,69,10,46,17,61,5826,Male,aef6eded2f6f5c8c1118f5bc10012976,5
1,1,70,73,46,73,40,10622,Male,aef6eded2f6f5c8c1118f5bc10012976,75
1,1,71,37,19,68,28,7543,Male,aef6eded2f6f5c8c1118f5bc10012976,32
1,1,72,64,91,60,78,6649,Male,aef6eded2f6f5c8c1118f5bc10012976,70
1,1,73,28,64,34,70,5936,Male,aef6eded2f6f5c8c1118f5bc10012976,27
1,1,74,55,82,40,67,2985,Male,aef6eded2f6f5c8c1118f5bc10012976,59
1,1,75,10,82,22,89,9365,Male,aef6eded2f6f5c8c1118f5bc10012976,9
1,1,76,73,19,91,23,6586,Male,aef6eded2f6f5c8c1118f5bc10012976,72
1,1,77,64,82,77,80,6824,Male,aef6eded2f6f5c8c1118f5bc10012976,69
1,1,78,19,46,20,71,5957,Male,aef6eded2f6f5c8c1118f5bc10012976,15
1,1,79,82,46,80,41,4164,Male,aef6eded2f6f5c8c1118f5bc10012976,85
1,1,80,19,73,25,71,5833,Male,aef6eded2f6f5c8c1118f5bc10012976,18
1,1,81,64,55,59,45,4549,Male,aef6eded2f6f5c8c1118f5bc10012976,66
1,1,82,28,55,36,47,7949,Male,aef6eded2f6f5c8c1118f5bc10012976,26
1,1,83,10,37,23,37,4559,Male,aef6eded2f6f5c8c1118f5bc10012976,4
1,1,84,64,28,46,34,5610,Male,aef6eded2f6f5c8c1118f5bc10012976,63
1,1,85,91,10,90,21,6120,Male,aef6eded2f6f5c8c1118f5bc10012976,91
1,1,86,91,64,85,63,4454,Male,aef6eded2f6f5c8c1118f5bc10012976,97
1,1,87,82,19,87,25,6553,Male,aef6eded2f6f5c8c1118f5bc10012976,82
1,1,88,91,46,83,27,6523,Male,aef6eded2f6f5c8c1118f5bc10012976,95
1,1,89,10,28,15,24,6952,Male,aef6eded2f6f5c8c1118f5bc10012976,3
1,1,90,82,73,85,73,6800,Male,aef6eded2f6f5c8c1118f5bc10012976,88
1,1,91,46,10,84,17,6435,Male,aef6eded2f6f5c8c1118f5bc10012976,41
1,1,92,46,64,38,38,6381,Male,aef6eded2f6f5c8c1118f5bc10012976,47
1,1,93,10,10,24,19,5201,Male,aef6eded2f6f5c8c1118f5bc10012976,1
1,1,94,82,37,78,31,7536,Male,aef6eded2f6f5c8c1118f5bc10012976,84
1,1,95,82,82,85,77,6319,Male,aef6eded2f6f5c8c1118f5bc10012976,89
1,1,96,28,28,40,37,7673,Male,aef6eded2f6f5c8c1118f5bc10012976,23
1,1,97,55,46,38,43,5285,Male,aef6eded2f6f5c8c1118f5bc10012976,55
1,1,98,37,46,36,43,4715,Male,aef6eded2f6f5c8c1118f5bc10012976,35
1,1,99,82,10,74,17,6396,Male,aef6eded2f6f5c8c1118f5bc10012976,81
1,2,0,37,91,50,50,1211,Male,aef6eded2f6f5c8c1118f5bc10012976,40
1,2,1,82,19,66,24,10365,Male,aef6eded2f6f5c8c1118f5bc10012976,82
1,2,2,73,37,66,33,4820,Male,aef6eded2f6f5c8c1118f5bc10012976,74
1,2,3,64,10,73,18,6462,Male,aef6eded2f6f5c8c1118f5bc10012976,61
1,2,4,37,19,38,19,7279,Male,aef6eded2f6f5c8c1118f5bc10012976,32
1,2,5,37,28,34,22,7079,Male,aef6eded2f6f5c8c1118f5bc10012976,33
1,2,6,10,10,24,12,6478,Male,aef6eded2f6f5c8c1118f5bc10012976,1
1,2,7,46,73,59,66,6918,Male,aef6eded2f6f5c8c1118f5bc10012976,48
1,2,8,28,91,28,79,8431,Male,aef6eded2f6f5c8c1118f5bc10012976,30
1,2,9,28,64,32,69,7081,Male,aef6eded2f6f5c8c1118f5bc10012976,27
1,2,10,37,37,31,38,5397,Male,aef6eded2f6f5c8c1118f5bc10012976,34
1,2,11,91,10,99,11,6974,Male,aef6eded2f6f5c8c1118f5bc10012976,91
1,2,12,37,64,47,66,6760,Male,aef6eded2f6f5c8c1118f5bc10012976,37
1,2,13,82,10,79,18,5372,Male,aef6eded2f6f5c8c1118f5bc10012976,81
1,2,14,46,64,63,72,3328,Male,aef6eded2f6f5c8c1118f5bc10012976,47
1,2,15,19,28,23,29,4790,Male,aef6eded2f6f5c8c1118f5bc10012976,13
1,2,16,55,37,46,32,4861,Male,aef6eded2f6f5c8c1118f5bc10012976,54
1,2,17,19,10,17,13,6696,Male,aef6eded2f6f5c8c1118f5bc10012976,11
1,2,18,64,91,59,83,4520,Male,aef6eded2f6f5c8c1118f5bc10012976,70
1,2,19,73,28,71,28,9764,Male,aef6eded2f6f5c8c1118f5bc10012976,73
1,2,20,10,64,6,68,3303,Male,aef6eded2f6f5c8c1118f5bc10012976,7
1,2,21,64,73,70,63,5605,Male,aef6eded2f6f5c8c1118f5bc10012976,68
1,2,22,10,55,16,65,6357,Male,aef6eded2f6f5c8c1118f5bc10012976,6
1,2,23,82,91,90,84,5610,Male,aef6eded2f6f5c8c1118f5bc10012976,90
1,2,24,46,19,61,21,3816,Male,aef6eded2f6f5c8c1118f5bc10012976,42
1,2,25,46,82,63,80,10947,Male,aef6eded2f6f5c8c1118f5bc10012976,49
1,2,26,91,28,87,23,5975,Male,aef6eded2f6f5c8c1118f5bc10012976,93
1,2,27,55,73,60,74,4533,Male,aef6eded2f6f5c8c1118f5bc10012976,58
1,2,28,82,73,88,73,4021,Male,aef6eded2f6f5c8c1118f5bc10012976,88
1,2,29,64,37,63,28,2978,Male,aef6eded2f6f5c8c1118f5bc10012976,64
1,2,30,37,73,33,71,2674,Male,aef6eded2f6f5c8c1118f5bc10012976,38
1,2,31,28,19,30,15,4579,Male,aef6eded2f6f5c8c1118f5bc10012976,22
1,2,32,82,82,79,80,3530,Male,aef6eded2f6f5c8c1118f5bc10012976,89
1,2,33,46,55,38,63,5654,Male,aef6eded2f6f5c8c1118f5bc10012976,46
1,2,34,73,19,74,21,4255,Male,aef6eded2f6f5c8c1118f5bc10012976,72
1,2,35,55,28,70,37,8821,Male,aef6eded2f6f5c8c1118f5bc10012976,53
1,2,36,28,55,41,64,5850,Male,aef6eded2f6f5c8c1118f5bc10012976,26
1,2,37,19,55,38,58,3282,Male,aef6eded2f6f5c8c1118f5bc10012976,16
1,2,38,10,37,11,31,5046,Male,aef6eded2f6f5c8c1118f5bc10012976,4
1,2,39,55,64,71,66,2617,Male,aef6eded2f6f5c8c1118f5bc10012976,57
1,2,40,55,82,64,77,6487,Male,aef6eded2f6f5c8c1118f5bc10012976,59
1,2,41,19,73,12,85,5347,Male,aef6eded2f6f5c8c1118f5bc10012976,18
1,2,42,55,55,63,60,3183,Male,aef6eded2f6f5c8c1118f5bc10012976,56
1,2,43,73,46,79,43,2731,Male,aef6eded2f6f5c8c1118f5bc10012976,75
1,2,44,10,91,5,75,3439,Male,aef6eded2f6f5c8c1118f5bc10012976,10
1,2,45,73,73,89,85,4018,Male,aef6eded2f6f5c8c1118f5bc10012976,78
1,2,46,73,91,85,89,3102,Male,aef6eded2f6f5c8c1118f5bc10012976,80
1,2,47,64,28,79,25,4076,Male,aef6eded2f6f5c8c1118f5bc10012976,63
1,2,48,28,46,38,29,5649,Male,aef6eded2f6f5c8c1118f5bc10012976,25
1,2,49,37,46,27,34,6463,Male,aef6eded2f6f5c8c1118f5bc10012976,35
1,2,50,37,55,38,44,3564,Male,aef6eded2f6f5c8c1118f5bc10012976,36
1,2,51,73,64,71,68,3705,Male,aef6eded2f6f5c8c1118f5bc10012976,77
1,2,52,91,64,90,78,2770,Male,aef6eded2f6f5c8c1118f5bc10012976,97
1,2,53,64,46,78,53,5836,Male,aef6eded2f6f5c8c1118f5bc10012976,65
1,2,54,28,37,26,44,3523,Male,aef6eded2f6f5c8c1118f5bc10012976,24
1,2,55,64,64,57,60,4189,Male,aef6eded2f6f5c8c1118f5bc10012976,67
1,2,56,55,19,57,26,2513,Male,aef6eded2f6f5c8c1118f5bc10012976,52
1,2,57,73,82,58,42,4425,Male,aef6eded2f6f5c8c1118f5bc10012976,79
1,2,58,73,10,65,19,2283,Male,aef6eded2f6f5c8c1118f5bc10012976,71
1,2,59,91,55,89,56,7833,Male,aef6eded2f6f5c8c1118f5bc10012976,96
1,2,60,46,37,49,36,3623,Male,aef6eded2f6f5c8c1118f5bc10012976,44
1,2,61,55,10,45,18,4012,Male,aef6eded2f6f5c8c1118f5bc10012976,51
1,2,62,10,73,12,77,6631,Male,aef6eded2f6f5c8c1118f5bc10012976,8
1,2,63,19,46,20,50,2579,Male,aef6eded2f6f5c8c1118f5bc10012976,15
1,2,64,10,46,19,41,2865,Male,aef6eded2f6f5c8c1118f5bc10012976,5
1,2,65,10,28,7,20,3408,Male,aef6eded2f6f5c8c1118f5bc10012976,3
1,2,66,82,28,85,24,4257,Male,aef6eded2f6f5c8c1118f5bc10012976,83
1,2,67,10,19,34,25,9369,Male,aef6eded2f6f5c8c1118f5bc10012976,2
1,2,68,28,73,26,75,4872,Male,aef6eded2f6f5c8c1118f5bc10012976,28
1,2,69,91,82,93,77,3707,Male,aef6eded2f6f5c8c1118f5bc10012976,99
1,2,70,28,82,36,87,5295,Male,aef6eded2f6f5c8c1118f5bc10012976,29
1,2,71,19,19,21,15,3629,Male,aef6eded2f6f5c8c1118f5bc10012976,12
1,2,72,91,37,91,34,7810,Male,aef6eded2f6f5c8c1118f5bc10012976,94
1,2,73,19,91,20,88,3532,Male,aef6eded2f6f5c8c1118f5bc10012976,20
1,2,74,28,28,19,23,4992,Male,aef6eded2f6f5c8c1118f5bc10012976,23
1,2,75,55,46,41,47,3010,Male,aef6eded2f6f5c8c1118f5bc10012976,55
1,2,76,28,10,32,15,4703,Male,aef6eded2f6f5c8c1118f5bc10012976,21
1,2,77,64,82,54,69,4703,Male,aef6eded2f6f5c8c1118f5bc10012976,69
1,2,78,46,46,61,43,4408,Male,aef6eded2f6f5c8c1118f5bc10012976,45
1,2,79,46,28,65,29,6871,Male,aef6eded2f6f5c8c1118f5bc10012976,43
1,2,80,91,73,95,77,2792,Male,aef6eded2f6f5c8c1118f5bc10012976,98
1,2,81,91,19,97,21,4423,Male,aef6eded2f6f5c8c1118f5bc10012976,92
1,2,82,82,64,89,55,6887,Male,aef6eded2f6f5c8c1118f5bc10012976,87
1,2,83,82,55,81,58,6229,Male,aef6eded2f6f5c8c1118f5bc10012976,86
1,2,84,19,37,17,38,3425,Male,aef6eded2f6f5c8c1118f5bc10012976,14
1,2,85,37,82,24,79,3262,Male,aef6eded2f6f5c8c1118f5bc10012976,39
1,2,86,46,91,34,77,4949,Male,aef6eded2f6f5c8c1118f5bc10012976,50
1,2,87,82,37,84,43,6208,Male,aef6eded2f6f5c8c1118f5bc10012976,84
1,2,88,91,91,86,92,3847,Male,aef6eded2f6f5c8c1118f5bc10012976,100
1,2,89,19,82,24,87,5545,Male,aef6eded2f6f5c8c1118f5bc10012976,19
1,2,90,91,46,87,63,3743,Male,aef6eded2f6f5c8c1118f5bc10012976,95
1,2,91,10,82,12,90,3834,Male,aef6eded2f6f5c8c1118f5bc10012976,9
1,2,92,64,19,85,17,3778,Male,aef6eded2f6f5c8c1118f5bc10012976,62
1,2,93,19,64,16,71,3106,Male,aef6eded2f6f5c8c1118f5bc10012976,17
1,2,94,73,55,83,43,2932,Male,aef6eded2f6f5c8c1118f5bc10012976,76
1,2,95,46,10,71,15,3745,Male,aef6eded2f6f5c8c1118f5bc10012976,41
1,2,96,37,10,68,9,6446,Male,aef6eded2f6f5c8c1118f5bc10012976,31
1,2,97,64,55,68,62,2734,Male,aef6eded2f6f5c8c1118f5bc10012976,66
1,2,98,82,46,71,41,5127,Male,aef6eded2f6f5c8c1118f5bc10012976,85
1,2,99,55,91,70,91,3216,Male,aef6eded2f6f5c8c1118f5bc10012976,60
1,1,0,82,46,80,51,9730,Female,f39c9fbe317efced837f1fbeff6d7d78,85
1,1,1,64,37,58,44,7302,Female,f39c9fbe317efced837f1fbeff6d7d78,64
1,1,2,55,64,44,72,4818,Female,f39c9fbe317efced837f1fbeff6d7d78,57
1,1,3,10,37,14,44,9707,Female,f39c9fbe317efced837f1fbeff6d7d78,4
1,1,4,19,73,20,86,6727,Female,f39c9fbe317efced837f1fbeff6d7d78,18
1,1,5,91,55,88,68,5643,Female,f39c9fbe317efced837f1fbeff6d7d78,96
1,1,6,19,64,33,61,6476,Female,f39c9fbe317efced837f1fbeff6d7d78,17
1,1,7,19,55,30,61,6444,Female,f39c9fbe317efced837f1fbeff6d7d78,16
1,1,8,10,10,9,8,7490,Female,f39c9fbe317efced837f1fbeff6d7d78,1
1,1,9,64,55,79,74,5543,Female,f39c9fbe317efced837f1fbeff6d7d78,66
1,1,10,19,19,29,37,8831,Female,f39c9fbe317efced837f1fbeff6d7d78,12
1,1,11,55,91,80,89,5418,Female,f39c9fbe317efced837f1fbeff6d7d78,60
1,1,12,19,10,15,11,7779,Female,f39c9fbe317efced837f1fbeff6d7d78,11
1,1,13,37,10,40,10,5323,Female,f39c9fbe317efced837f1fbeff6d7d78,31
1,1,14,28,28,24,24,5436,Female,f39c9fbe317efced837f1fbeff6d7d78,23
1,1,15,91,19,91,32,9641,Female,f39c9fbe317efced837f1fbeff6d7d78,92
1,1,16,82,55,77,40,6021,Female,f39c9fbe317efced837f1fbeff6d7d78,86
1,1,17,64,73,63,84,4977,Female,f39c9fbe317efced837f1fbeff6d7d78,68
1,1,18,91,46,71,51,7169,Female,f39c9fbe317efced837f1fbeff6d7d78,95
1,1,19,46,10,48,15,7149,Female,f39c9fbe317efced837f1fbeff6d7d78,41
1,1,20,28,82,18,79,5509,Female,f39c9fbe317efced837f1fbeff6d7d78,29
1,1,21,28,37,37,44,5340,Female,f39c9fbe317efced837f1fbeff6d7d78,24
1,1,22,55,37,42,49,5689,Female,f39c9fbe317efced837f1fbeff6d7d78,54
1,1,23,10,28,21,22,7244,Female,f39c9fbe317efced837f1fbeff6d7d78,3
1,1,24,28,19,20,15,6156,Female,f39c9fbe317efced837f1fbeff6d7d78,22
1,1,25,46,91,46,91,4277,Female,f39c9fbe317efced837f1fbeff6d7d78,50
1,1,26,46,82,43,77,5298,Female,f39c9fbe317efced837f1fbeff6d7d78,49
1,1,27,55,10,50,6,6474,Female,f39c9fbe317efced837f1fbeff6d7d78,51
1,1,28,37,82,50,85,3014,Female,f39c9fbe317efced837f1fbeff6d7d78,39
1,1,29,82,91,91,77,4865,Female,f39c9fbe317efced837f1fbeff6d7d78,90
1,1,30,10,46,10,50,4400,Female,f39c9fbe317efced837f1fbeff6d7d78,5
1,1,31,55,82,55,76,4941,Female,f39c9fbe317efced837f1fbeff6d7d78,59
1,1,32,64,64,58,75,3815,Female,f39c9fbe317efced837f1fbeff6d7d78,67
1,1,33,37,19,40,34,5394,Female,f39c9fbe317efced837f1fbeff6d7d78,32
1,1,34,10,73,13,77,4723,Female,f39c9fbe317efced837f1fbeff6d7d78,8
1,1,35,82,10,81,12,5707,Female,f39c9fbe317efced837f1fbeff6d7d78,81
1,1,36,82,19,69,30,4489,Female,f39c9fbe317efced837f1fbeff6d7d78,82
1,1,37,37,91,57,96,4664,Female,f39c9fbe317efced837f1fbeff6d7d78,40
1,1,38,28,64,42,59,3766,Female,f39c9fbe317efced837f1fbeff6d7d78,27
1,1,39,82,73,71,64,4082,Female,f39c9fbe317efced837f1fbeff6d7d78,88
1,1,40,64,28,67,33,4318,Female,f39c9fbe317efced837f1fbeff6d7d78,63
1,1,41,64,82,50,78,2337,Female,f39c9fbe317efced837f1fbeff6d7d78,69
1,1,42,91,73,69,64,4280,Female,f39c9fbe317efced837f1fbeff6d7d78,98
1,1,43,19,46,30,39,4218,Female,f39c9fbe317efced837f1fbeff6d7d78,15
1,1,44,73,91,78,71,3975,Female,f39c9fbe317efced837f1fbeff6d7d78,80
1,1,45,82,28,64,34,4358,Female,f39c9fbe317efced837f1fbeff6d7d78,83
1,1,46,10,82,12,91,4856,Female,f39c9fbe317efced837f1fbeff6d7d78,9
1,1,47,91,91,92,97,5059,Female,f39c9fbe317efced837f1fbeff6d7d78,100
1,1,48,46,73,36,83,7427,Female,f39c9fbe317efced837f1fbeff6d7d78,48
1,1,49,46,55,43,65,4106,Female,f39c9fbe317efced837f1fbeff6d7d78,46
1,1,50,37,73,56,74,3992,Female,f39c9fbe317efced837f1fbeff6d7d78,38
1,1,51,91,10,91,5,4970,Female,f39c9fbe317efced837f1fbeff6d7d78,91
1,1,52,64,91,60,94,4493,Female,f39c9fbe317efced837f1fbeff6d7d78,70
1,1,53,73,37,65,55,6646,Female,f39c9fbe317efced837f1fbeff6d7d78,74
1,1,54,55,46,57,36,3485,Female,f39c9fbe317efced837f1fbeff6d7d78,55
1,1,55,46,64,59,77,4120,Female,f39c9fbe317efced837f1fbeff6d7d78,47
1,1,56,46,46,56,39,4919,Female,f39c9fbe317efced837f1fbeff6d7d78,45
1,1,57,73,10,88,8,4669,Female,f39c9fbe317efced837f1fbeff6d7d78,71
1,1,58,73,28,77,24,4400,Female,f39c9fbe317efced837f1fbeff6d7d78,73
1,1,59,73,55,70,74,5249,Female,f39c9fbe317efced837f1fbeff6d7d78,76
1,1,60,73,64,70,55,7771,Female,f39c9fbe317efced837f1fbeff6d7d78,77
1,1,61,73,46,68,47,5328,Female,f39c9fbe317efced837f1fbeff6d7d78,75
1,1,62,10,19,10,14,6364,Female,f39c9fbe317efced837f1fbeff6d7d78,2
1,1,63,28,10,29,15,6125,Female,f39c9fbe317efced837f1fbeff6d7d78,21
1,1,64,55,28,57,25,7223,Female,f39c9fbe317efced837f1fbeff6d7d78,53
1,1,65,55,73,52,74,7029,Female,f39c9fbe317efced837f1fbeff6d7d78,58
1,1,66,55,19,57,22,5185,Female,f39c9fbe317efced837f1fbeff6d7d78,52
1,1,67,28,46,22,30,5010,Female,f39c9fbe317efced837f1fbeff6d7d78,25
1,1,68,82,37,76,26,9009,Female,f39c9fbe317efced837f1fbeff6d7d78,84
1,1,69,10,64,17,74,6735,Female,f39c9fbe317efced837f1fbeff6d7d78,7
1,1,70,46,19,34,23,6997,Female,f39c9fbe317efced837f1fbeff6d7d78,42
1,1,71,37,55,38,35,10483,Female,f39c9fbe317efced837f1fbeff6d7d78,36
1,1,72,73,73,81,85,4452,Female,f39c9fbe317efced837f1fbeff6d7d78,78
1,1,73,19,91,18,84,6420,Female,f39c9fbe317efced837f1fbeff6d7d78,20
1,1,74,37,37,29,37,6877,Female,f39c9fbe317efced837f1fbeff6d7d78,34
1,1,75,55,55,66,57,4663,Female,f39c9fbe317efced837f1fbeff6d7d78,56
1,1,76,37,64,31,63,4774,Female,f39c9fbe317efced837f1fbeff6d7d78,37
1,1,77,46,37,44,32,5395,Female,f39c9fbe317efced837f1fbeff6d7d78,44
1,1,78,64,19,46,32,8349,Female,f39c9fbe317efced837f1fbeff6d7d78,62
1,1,79,19,37,23,30,4609,Female,f39c9fbe317efced837f1fbeff6d7d78,14
1,1,80,82,64,80,60,6089,Female,f39c9fbe317efced837f1fbeff6d7d78,87
1,1,81,73,19,72,17,6027,Female,f39c9fbe317efced837f1fbeff6d7d78,72
1,1,82,64,10,69,9,5761,Female,f39c9fbe317efced837f1fbeff6d7d78,61
1,1,83,46,28,50,32,3110,Female,f39c9fbe317efced837f1fbeff6d7d78,43
1,1,84,37,28,42,37,4333,Female,f39c9fbe317efced837f1fbeff6d7d78,33
1,1,85,19,82,28,92,4664,Female,f39c9fbe317efced837f1fbeff6d7d78,19
1,1,86,82,82,77,79,4040,Female,f39c9fbe317efced837f1fbeff6d7d78,89
1,1,87,10,55,5,30,5742,Female,f39c9fbe317efced837f1fbeff6d7d78,6
1,1,88,91,37,94,31,6692,Female,f39c9fbe317efced837f1fbeff6d7d78,94
1,1,89,19,28,19,24,6733,Female,f39c9fbe317efced837f1fbeff6d7d78,13
1,1,90,28,91,45,91,5579,Female,f39c9fbe317efced837f1fbeff6d7d78,30
1,1,91,73,82,85,67,6885,Female,f39c9fbe317efced837f1fbeff6d7d78,79
1,1,92,91,28,81,21,5251,Female,f39c9fbe317efced837f1fbeff6d7d78,93
1,1,93,91,82,83,62,3518,Female,f39c9fbe317efced837f1fbeff6d7d78,99
1,1,94,37,46,44,45,4598,Female,f39c9fbe317efced837f1fbeff6d7d78,35
1,1,95,28,55,46,64,2716,Female,f39c9fbe317efced837f1fbeff6d7d78,26
1,1,96,64,46,50,50,1038,Female,f39c9fbe317efced837f1fbeff6d7d78,65
1,1,97,10,91,6,96,5133,Female,f39c9fbe317efced837f1fbeff6d7d78,10
1,1,98,91,64,89,82,4346,Female,f39c9fbe317efced837f1fbeff6d7d78,97
1,1,99,28,73,27,79,5441,Female,f39c9fbe317efced837f1fbeff6d7d78,28
1,2,0,37,37,50,50,6179,Female,f39c9fbe317efced837f1fbeff6d7d78,34
1,2,1,64,10,50,9,4663,Female,f39c9fbe317efced837f1fbeff6d7d78,61
1,2,2,28,46,41,55,5279,Female,f39c9fbe317efced837f1fbeff6d7d78,25
1,2,3,73,28,50,18,2529,Female,f39c9fbe317efced837f1fbeff6d7d78,73
1,2,4,19,91,7,55,3271,Female,f39c9fbe317efced837f1fbeff6d7d78,20
1,2,5,37,55,31,56,3170,Female,f39c9fbe317efced837f1fbeff6d7d78,36
1,2,6,10,55,14,65,4056,Female,f39c9fbe317efced837f1fbeff6d7d78,6
1,2,7,28,28,22,27,3854,Female,f39c9fbe317efced837f1fbeff6d7d78,23
1,2,8,82,73,81,75,4510,Female,f39c9fbe317efced837f1fbeff6d7d78,88
1,2,9,64,28,50,22,3751,Female,f39c9fbe317efced837f1fbeff6d7d78,63
1,2,10,82,82,81,79,7192,Female,f39c9fbe317efced837f1fbeff6d7d78,89
1,2,11,82,19,38,17,4760,Female,f39c9fbe317efced837f1fbeff6d7d78,82
1,2,12,46,73,50,72,2893,Female,f39c9fbe317efced837f1fbeff6d7d78,48
1,2,13,91,73,87,64,6182,Female,f39c9fbe317efced837f1fbeff6d7d78,98
1,2,14,73,91,79,91,3853,Female,f39c9fbe317efced837f1fbeff6d7d78,80
1,2,15,28,82,21,82,4288,Female,f39c9fbe317efced837f1fbeff6d7d78,29
1,2,16,19,28,25,35,3949,Female,f39c9fbe317efced837f1fbeff6d7d78,13
1,2,17,55,28,58,34,2812,Female,f39c9fbe317efced837f1fbeff6d7d78,53
1,2,18,46,46,50,50,1602,Female,f39c9fbe317efced837f1fbeff6d7d78,45
1,2,19,91,64,87,69,2531,Female,f39c9fbe317efced837f1fbeff6d7d78,97
1,2,20,73,73,74,60,4081,Female,f39c9fbe317efced837f1fbeff6d7d78,78
1,2,21,73,46,65,54,6380,Female,f39c9fbe317efced837f1fbeff6d7d78,75
1,2,22,55,19,50,28,2471,Female,f39c9fbe317efced837f1fbeff6d7d78,52
1,2,23,46,10,50,4,2354,Female,f39c9fbe317efced837f1fbeff6d7d78,41
1,2,24,91,10,69,7,4841,Female,f39c9fbe317efced837f1fbeff6d7d78,91
1,2,25,46,91,42,96,4008,Female,f39c9fbe317efced837f1fbeff6d7d78,50
1,2,26,19,64,32,84,3944,Female,f39c9fbe317efced837f1fbeff6d7d78,17
1,2,27,19,46,29,36,3187,Female,f39c9fbe317efced837f1fbeff6d7d78,15
1,2,28,82,55,80,57,3092,Female,f39c9fbe317efced837f1fbeff6d7d78,86
1,2,29,28,19,11,15,5257,Female,f39c9fbe317efced837f1fbeff6d7d78,22
1,2,30,55,37,66,29,4959,Female,f39c9fbe317efced837f1fbeff6d7d78,54
1,2,31,37,28,54,30,4970,Female,f39c9fbe317efced837f1fbeff6d7d78,33
1,2,32,28,55,19,50,3050,Female,f39c9fbe317efced837f1fbeff6d7d78,26
1,2,33,19,82,9,77,5601,Female,f39c9fbe317efced837f1fbeff6d7d78,19
1,2,34,46,55,39,47,4335,Female,f39c9fbe317efced837f1fbeff6d7d78,46
1,2,35,19,10,14,5,3944,Female,f39c9fbe317efced837f1fbeff6d7d78,11
1,2,36,10,19,8,12,6255,Female,f39c9fbe317efced837f1fbeff6d7d78,2
1,2,37,82,10,90,11,5952,Female,f39c9fbe317efced837f1fbeff6d7d78,81
1,2,38,82,91,85,93,4422,Female,f39c9fbe317efced837f1fbeff6d7d78,90
1,2,39,19,55,1,50,3736,Female,f39c9fbe317efced837f1fbeff6d7d78,16
1,2,40,55,46,64,50,2595,Female,f39c9fbe317efced837f1fbeff6d7d78,55
1,2,41,28,37,67,34,3182,Female,f39c9fbe317efced837f1fbeff6d7d78,24
1,2,42,55,10,50,8,2122,Female,f39c9fbe317efced837f1fbeff6d7d78,51
1,2,43,55,73,65,77,2847,Female,f39c9fbe317efced837f1fbeff6d7d78,58
1,2,44,46,37,50,25,1814,Female,f39c9fbe317efced837f1fbeff6d7d78,44
1,2,45,55,82,50,81,3309,Female,f39c9fbe317efced837f1fbeff6d7d78,59
1,2,46,37,64,50,71,2208,Female,f39c9fbe317efced837f1fbeff6d7d78,37
1,2,47,46,19,50,18,2275,Female,f39c9fbe317efced837f1fbeff6d7d78,42
1,2,48,64,37,64,25,6483,Female,f39c9fbe317efced837f1fbeff6d7d78,64
1,2,49,91,28,78,43,7738,Female,f39c9fbe317efced837f1fbeff6d7d78,93
1,2,50,73,55,69,50,1586,Female,f39c9fbe317efced837f1fbeff6d7d78,76
1,2,51,64,82,50,94,2064,Female,f39c9fbe317efced837f1fbeff6d7d78,69
1,2,52,55,91,50,86,2216,Female,f39c9fbe317efced837f1fbeff6d7d78,60
1,2,53,10,46,8,44,3472,Female,f39c9fbe317efced837f1fbeff6d7d78,5
1,2,54,10,10,6,24,4069,Female,f39c9fbe317efced837f1fbeff6d7d78,1
1,2,55,37,46,40,36,3696,Female,f39c9fbe317efced837f1fbeff6d7d78,35
1,2,56,37,82,37,84,2978,Female,f39c9fbe317efced837f1fbeff6d7d78,39
1,2,57,91,91,71,95,3347,Female,f39c9fbe317efced837f1fbeff6d7d78,100
1,2,58,82,37,75,42,2068,Female,f39c9fbe317efced837f1fbeff6d7d78,84
1,2,59,64,91,50,95,1650,Female,f39c9fbe317efced837f1fbeff6d7d78,70
1,2,60,19,37,22,31,4852,Female,f39c9fbe317efced837f1fbeff6d7d78,14
1,2,61,37,91,53,86,3943,Female,f39c9fbe317efced837f1fbeff6d7d78,40
1,2,62,28,10,17,13,2950,Female,f39c9fbe317efced837f1fbeff6d7d78,21
1,2,63,64,19,60,18,2401,Female,f39c9fbe317efced837f1fbeff6d7d78,62
1,2,64,91,82,100,93,4313,Female,f39c9fbe317efced837f1fbeff6d7d78,99
1,2,65,46,82,38,87,3477,Female,f39c9fbe317efced837f1fbeff6d7d78,49
1,2,66,64,73,50,83,2224,Female,f39c9fbe317efced837f1fbeff6d7d78,68
1,2,67,10,73,6,85,3530,Female,f39c9fbe317efced837f1fbeff6d7d78,8
1,2,68,91,46,85,44,2233,Female,f39c9fbe317efced837f1fbeff6d7d78,95
1,2,69,37,73,60,84,2981,Female,f39c9fbe317efced837f1fbeff6d7d78,38
1,2,70,37,19,33,13,4264,Female,f39c9fbe317efced837f1fbeff6d7d78,32
1,2,71,64,46,44,50,1431,Female,f39c9fbe317efced837f1fbeff6d7d78,65
1,2,72,46,64,50,70,1749,Female,f39c9fbe317efced837f1fbeff6d7d78,47
1,2,73,37,10,44,8,1775,Female,f39c9fbe317efced837f1fbeff6d7d78,31
1,2,74,91,37,96,50,1708,Female,f39c9fbe317efced837f1fbeff6d7d78,94
1,2,75,82,28,60,19,2788,Female,f39c9fbe317efced837f1fbeff6d7d78,83
1,2,76,82,64,63,64,1939,Female,f39c9fbe317efced837f1fbeff6d7d78,87
1,2,77,10,37,6,37,3177,Female,f39c9fbe317efced837f1fbeff6d7d78,4
1,2,78,28,91,52,96,3904,Female,f39c9fbe317efced837f1fbeff6d7d78,30
1,2,79,28,73,25,80,2766,Female,f39c9fbe317efced837f1fbeff6d7d78,28
1,2,80,73,19,86,15,2525,Female,f39c9fbe317efced837f1fbeff6d7d78,72
1,2,81,64,55,69,37,2476,Female,f39c9fbe317efced837f1fbeff6d7d78,66
1,2,82,73,37,69,38,1481,Female,f39c9fbe317efced837f1fbeff6d7d78,74
1,2,83,46,28,57,36,1932,Female,f39c9fbe317efced837f1fbeff6d7d78,43
1,2,84,10,64,15,73,2585,Female,f39c9fbe317efced837f1fbeff6d7d78,7
1,2,85,10,28,10,20,2549,Female,f39c9fbe317efced837f1fbeff6d7d78,3
1,2,86,10,82,7,91,2994,Female,f39c9fbe317efced837f1fbeff6d7d78,9
1,2,87,82,46,85,38,5009,Female,f39c9fbe317efced837f1fbeff6d7d78,85
1,2,88,73,64,76,71,2414,Female,f39c9fbe317efced837f1fbeff6d7d78,77
1,2,89,28,64,33,72,4484,Female,f39c9fbe317efced837f1fbeff6d7d78,27
1,2,90,19,73,29,88,2511,Female,f39c9fbe317efced837f1fbeff6d7d78,18
1,2,91,10,91,15,95,2753,Female,f39c9fbe317efced837f1fbeff6d7d78,10
1,2,92,55,64,40,55,3463,Female,f39c9fbe317efced837f1fbeff6d7d78,57
1,2,93,91,55,85,50,1387,Female,f39c9fbe317efced837f1fbeff6d7d78,96
1,2,94,64,64,71,54,1675,Female,f39c9fbe317efced837f1fbeff6d7d78,67
1,2,95,91,19,93,18,2609,Female,f39c9fbe317efced837f1fbeff6d7d78,92
1,2,96,73,82,79,85,3547,Female,f39c9fbe317efced837f1fbeff6d7d78,79
1,2,97,19,19,10,15,3058,Female,f39c9fbe317efced837f1fbeff6d7d78,12
1,2,98,73,10,56,8,3557,Female,f39c9fbe317efced837f1fbeff6d7d78,71
1,2,99,55,55,57,52,2500,Female,f39c9fbe317efced837f1fbeff6d7d78,56
2,1,0,73,82,63,78,18611,Female,bd01460ea97ff031243fca799a477b80,79
2,1,1,82,10,65,26,20774,Female,bd01460ea97ff031243fca799a477b80,81
2,1,2,28,46,23,59,9494,Female,bd01460ea97ff031243fca799a477b80,25
2,1,3,64,37,73,28,11330,Female,bd01460ea97ff031243fca799a477b80,64
2,1,4,73,64,76,59,9685,Female,bd01460ea97ff031243fca799a477b80,77
2,1,5,55,73,60,84,10514,Female,bd01460ea97ff031243fca799a477b80,58
2,1,6,82,91,94,91,10286,Female,bd01460ea97ff031243fca799a477b80,90
2,1,7,10,19,36,24,18035,Female,bd01460ea97ff031243fca799a477b80,2
2,1,8,91,10,96,24,11856,Female,bd01460ea97ff031243fca799a477b80,91
2,1,9,10,55,9,64,8637,Female,bd01460ea97ff031243fca799a477b80,6
2,1,10,82,82,90,85,7628,Female,bd01460ea97ff031243fca799a477b80,89
2,1,11,82,55,84,64,11969,Female,bd01460ea97ff031243fca799a477b80,86
2,1,12,46,55,46,59,8395,Female,bd01460ea97ff031243fca799a477b80,46
2,1,13,10,46,20,46,10621,Female,bd01460ea97ff031243fca799a477b80,5
2,1,14,55,19,33,29,16853,Female,bd01460ea97ff031243fca799a477b80,52
2,1,15,73,28,72,29,7975,Female,bd01460ea97ff031243fca799a477b80,73
2,1,16,19,19,17,23,10819,Female,bd01460ea97ff031243fca799a477b80,12
2,1,17,55,46,43,46,19736,Female,bd01460ea97ff031243fca799a477b80,55
2,1,18,37,28,43,40,11120,Female,bd01460ea97ff031243fca799a477b80,33
2,1,19,19,73,24,53,7869,Female,bd01460ea97ff031243fca799a477b80,18
2,1,20,19,64,36,60,8578,Female,bd01460ea97ff031243fca799a477b80,17
2,1,21,10,28,33,34,20629,Female,bd01460ea97ff031243fca799a477b80,3
2,1,22,55,28,35,30,22631,Female,bd01460ea97ff031243fca799a477b80,53
2,1,23,37,82,48,82,9289,Female,bd01460ea97ff031243fca799a477b80,39
2,1,24,28,37,43,46,5675,Female,bd01460ea97ff031243fca799a477b80,24
2,1,25,10,82,23,82,10887,Female,bd01460ea97ff031243fca799a477b80,9
2,1,26,46,73,40,85,15887,Female,bd01460ea97ff031243fca799a477b80,48
2,1,27,64,10,67,27,7715,Female,bd01460ea97ff031243fca799a477b80,61
2,1,28,28,64,47,79,7650,Female,bd01460ea97ff031243fca799a477b80,27
2,1,29,37,19,47,28,8059,Female,bd01460ea97ff031243fca799a477b80,32
2,1,30,91,37,63,33,10196,Female,bd01460ea97ff031243fca799a477b80,94
2,1,31,28,28,32,39,7786,Female,bd01460ea97ff031243fca799a477b80,23
2,1,32,37,46,41,41,7176,Female,bd01460ea97ff031243fca799a477b80,35
2,1,33,73,37,68,36,9203,Female,bd01460ea97ff031243fca799a477b80,74
2,1,34,19,82,34,81,9957,Female,bd01460ea97ff031243fca799a477b80,19
2,1,35,55,55,45,69,9170,Female,bd01460ea97ff031243fca799a477b80,56
2,1,36,10,73,33,76,11477,Female,bd01460ea97ff031243fca799a477b80,8
