n_categories,trial_id,x1_true,x2_true,cat_true,response,accuracy,rt,participant_id
1,0,19,64,1,1,9999,2067,c9a8ce1f5cccf9534266c706b538c6ca
1,1,28,10,1,3,9999,2017,c9a8ce1f5cccf9534266c706b538c6ca
1,2,37,64,1,4,9999,1423,c9a8ce1f5cccf9534266c706b538c6ca
1,3,55,10,1,2,9999,1136,c9a8ce1f5cccf9534266c706b538c6ca
1,4,82,10,1,1,9999,1565,c9a8ce1f5cccf9534266c706b538c6ca
1,5,19,46,1,4,9999,940,c9a8ce1f5cccf9534266c706b538c6ca
1,6,46,91,1,4,9999,834,c9a8ce1f5cccf9534266c706b538c6ca
1,7,55,73,1,4,9999,1515,c9a8ce1f5cccf9534266c706b538c6ca
1,8,91,19,1,1,9999,767,c9a8ce1f5cccf9534266c706b538c6ca
1,9,10,55,1,4,9999,1187,c9a8ce1f5cccf9534266c706b538c6ca
1,10,37,28,1,1,9999,3371,c9a8ce1f5cccf9534266c706b538c6ca
1,11,73,82,1,4,9999,799,c9a8ce1f5cccf9534266c706b538c6ca
1,12,37,46,1,1,9999,1239,c9a8ce1f5cccf9534266c706b538c6ca
1,13,73,10,1,1,9999,1396,c9a8ce1f5cccf9534266c706b538c6ca
1,14,28,46,1,3,9999,1084,c9a8ce1f5cccf9534266c706b538c6ca
1,15,82,55,1,3,9999,1520,c9a8ce1f5cccf9534266c706b538c6ca
1,16,64,91,1,4,9999,1249,c9a8ce1f5cccf9534266c706b538c6ca
1,17,64,55,1,4,9999,2204,c9a8ce1f5cccf9534266c706b538c6ca
1,18,37,55,1,1,9999,1900,c9a8ce1f5cccf9534266c706b538c6ca
1,19,10,64,1,3,9999,1583,c9a8ce1f5cccf9534266c706b538c6ca
1,20,55,55,1,4,9999,848,c9a8ce1f5cccf9534266c706b538c6ca
1,21,73,46,1,4,9999,1447,c9a8ce1f5cccf9534266c706b538c6ca
1,22,28,91,1,4,9999,1634,c9a8ce1f5cccf9534266c706b538c6ca
1,23,91,82,1,3,9999,1756,c9a8ce1f5cccf9534266c706b538c6ca
1,24,28,19,1,4,9999,1608,c9a8ce1f5cccf9534266c706b538c6ca
1,25,46,28,1,4,9999,1805,c9a8ce1f5cccf9534266c706b538c6ca
1,26,55,64,1,4,9999,1836,c9a8ce1f5cccf9534266c706b538c6ca
1,27,64,37,1,2,9999,1400,c9a8ce1f5cccf9534266c706b538c6ca
1,28,55,28,1,1,9999,2407,c9a8ce1f5cccf9534266c706b538c6ca
1,29,19,82,1,4,9999,917,c9a8ce1f5cccf9534266c706b538c6ca
1,30,82,64,1,3,9999,1226,c9a8ce1f5cccf9534266c706b538c6ca
1,31,82,91,1,4,9999,1417,c9a8ce1f5cccf9534266c706b538c6ca
1,32,73,28,1,1,9999,1563,c9a8ce1f5cccf9534266c706b538c6ca
1,33,55,37,1,4,9999,2250,c9a8ce1f5cccf9534266c706b538c6ca
1,34,91,55,1,3,9999,2269,c9a8ce1f5cccf9534266c706b538c6ca
1,35,46,46,1,4,9999,1433,c9a8ce1f5cccf9534266c706b538c6ca
1,36,64,64,1,4,9999,912,c9a8ce1f5cccf9534266c706b538c6ca
1,37,82,37,1,2,9999,1614,c9a8ce1f5cccf9534266c706b538c6ca
1,38,10,73,1,4,9999,1363,c9a8ce1f5cccf9534266c706b538c6ca
1,39,46,73,1,4,9999,1135,c9a8ce1f5cccf9534266c706b538c6ca
1,40,64,64,1,4,9999,1973,c9a8ce1f5cccf9534266c706b538c6ca
1,41,64,91,1,3,9999,1155,c9a8ce1f5cccf9534266c706b538c6ca
1,42,55,37,1,2,9999,1618,c9a8ce1f5cccf9534266c706b538c6ca
1,43,10,91,1,4,9999,1248,c9a8ce1f5cccf9534266c706b538c6ca
1,44,10,37,1,3,9999,1288,c9a8ce1f5cccf9534266c706b538c6ca
1,45,55,64,1,4,9999,834,c9a8ce1f5cccf9534266c706b538c6ca
1,46,73,28,1,2,9999,1275,c9a8ce1f5cccf9534266c706b538c6ca
1,47,28,55,1,4,9999,1169,c9a8ce1f5cccf9534266c706b538c6ca
1,48,37,46,1,4,9999,1123,c9a8ce1f5cccf9534266c706b538c6ca
1,49,55,10,1,2,9999,1624,c9a8ce1f5cccf9534266c706b538c6ca
1,50,82,64,1,4,9999,1266,c9a8ce1f5cccf9534266c706b538c6ca
1,51,82,82,1,4,9999,1070,c9a8ce1f5cccf9534266c706b538c6ca
1,52,82,91,1,4,9999,914,c9a8ce1f5cccf9534266c706b538c6ca
1,53,19,91,1,4,9999,934,c9a8ce1f5cccf9534266c706b538c6ca
1,54,37,10,1,3,9999,1317,c9a8ce1f5cccf9534266c706b538c6ca
1,55,28,28,1,4,9999,829,c9a8ce1f5cccf9534266c706b538c6ca
1,56,10,19,1,3,9999,1872,c9a8ce1f5cccf9534266c706b538c6ca
1,57,10,64,1,4,9999,1268,c9a8ce1f5cccf9534266c706b538c6ca
1,58,55,82,1,3,9999,125,c9a8ce1f5cccf9534266c706b538c6ca
1,59,91,46,1,2,9999,2242,c9a8ce1f5cccf9534266c706b538c6ca
1,60,55,64,1,4,9999,1247,c9a8ce1f5cccf9534266c706b538c6ca
1,61,19,19,1,2,9999,955,c9a8ce1f5cccf9534266c706b538c6ca
1,62,19,37,1,1,9999,687,c9a8ce1f5cccf9534266c706b538c6ca
1,63,82,37,1,3,9999,1626,c9a8ce1f5cccf9534266c706b538c6ca
1,64,10,10,1,2,9999,1554,c9a8ce1f5cccf9534266c706b538c6ca
1,65,46,55,1,3,9999,1295,c9a8ce1f5cccf9534266c706b538c6ca
1,66,82,19,1,2,9999,1213,c9a8ce1f5cccf9534266c706b538c6ca
1,67,37,82,1,4,9999,881,c9a8ce1f5cccf9534266c706b538c6ca
1,68,55,73,1,3,9999,1148,c9a8ce1f5cccf9534266c706b538c6ca
1,69,19,82,1,2,9999,1240,c9a8ce1f5cccf9534266c706b538c6ca
1,70,82,55,1,4,9999,1740,c9a8ce1f5cccf9534266c706b538c6ca
1,71,55,37,1,4,9999,2412,c9a8ce1f5cccf9534266c706b538c6ca
1,72,55,37,1,4,9999,1772,c9a8ce1f5cccf9534266c706b538c6ca
1,73,28,73,1,4,9999,1892,c9a8ce1f5cccf9534266c706b538c6ca
1,74,10,82,1,3,9999,1462,c9a8ce1f5cccf9534266c706b538c6ca
1,75,10,82,1,4,9999,1045,c9a8ce1f5cccf9534266c706b538c6ca
1,76,46,19,1,2,9999,1578,c9a8ce1f5cccf9534266c706b538c6ca
1,77,19,55,1,4,9999,1344,c9a8ce1f5cccf9534266c706b538c6ca
1,78,82,46,1,1,9999,1312,c9a8ce1f5cccf9534266c706b538c6ca
1,79,10,19,1,2,9999,1130,c9a8ce1f5cccf9534266c706b538c6ca
1,80,46,19,1,3,9999,1329,c9a8ce1f5cccf9534266c706b538c6ca
1,81,73,28,1,3,9999,1265,c9a8ce1f5cccf9534266c706b538c6ca
1,82,28,46,1,4,9999,1962,c9a8ce1f5cccf9534266c706b538c6ca
1,83,55,10,1,2,9999,982,c9a8ce1f5cccf9534266c706b538c6ca
1,84,10,10,1,3,9999,1064,c9a8ce1f5cccf9534266c706b538c6ca
1,85,73,55,1,4,9999,817,c9a8ce1f5cccf9534266c706b538c6ca
1,86,46,10,1,2,9999,968,c9a8ce1f5cccf9534266c706b538c6ca
1,87,55,55,1,3,9999,1543,c9a8ce1f5cccf9534266c706b538c6ca
1,88,10,91,1,4,9999,1161,c9a8ce1f5cccf9534266c706b538c6ca
1,89,28,28,1,3,9999,1339,c9a8ce1f5cccf9534266c706b538c6ca
1,90,28,10,1,4,9999,878,c9a8ce1f5cccf9534266c706b538c6ca
1,91,55,46,1,4,9999,1291,c9a8ce1f5cccf9534266c706b538c6ca
1,92,91,10,1,2,9999,2447,c9a8ce1f5cccf9534266c706b538c6ca
1,93,28,37,1,4,9999,1129,c9a8ce1f5cccf9534266c706b538c6ca
1,94,37,28,1,3,9999,1187,c9a8ce1f5cccf9534266c706b538c6ca
1,95,55,46,1,4,9999,1339,c9a8ce1f5cccf9534266c706b538c6ca
1,96,73,37,1,3,9999,1260,c9a8ce1f5cccf9534266c706b538c6ca
1,97,28,82,1,2,9999,1193,c9a8ce1f5cccf9534266c706b538c6ca
1,98,19,73,1,3,9999,1865,c9a8ce1f5cccf9534266c706b538c6ca
1,99,28,10,1,2,9999,1473,c9a8ce1f5cccf9534266c706b538c6ca
1,100,28,64,1,4,9999,1362,c9a8ce1f5cccf9534266c706b538c6ca
1,101,91,91,1,4,9999,1546,c9a8ce1f5cccf9534266c706b538c6ca
1,102,19,19,1,2,9999,1111,c9a8ce1f5cccf9534266c706b538c6ca
1,103,19,46,1,2,9999,2048,c9a8ce1f5cccf9534266c706b538c6ca
1,104,73,73,1,4,9999,2057,c9a8ce1f5cccf9534266c706b538c6ca
1,105,10,28,1,1,9999,1835,c9a8ce1f5cccf9534266c706b538c6ca
1,106,91,55,1,4,9999,1427,c9a8ce1f5cccf9534266c706b538c6ca
1,107,37,55,1,3,9999,1028,c9a8ce1f5cccf9534266c706b538c6ca
1,108,37,55,1,3,9999,1845,c9a8ce1f5cccf9534266c706b538c6ca
1,109,64,55,1,4,9999,2234,c9a8ce1f5cccf9534266c706b538c6ca
1,110,55,64,1,4,9999,2325,c9a8ce1f5cccf9534266c706b538c6ca
1,111,19,10,1,2,9999,891,c9a8ce1f5cccf9534266c706b538c6ca
1,112,91,19,1,3,9999,1202,c9a8ce1f5cccf9534266c706b538c6ca
1,113,28,10,1,4,9999,1312,c9a8ce1f5cccf9534266c706b538c6ca
1,114,19,10,1,1,9999,2863,c9a8ce1f5cccf9534266c706b538c6ca
1,115,64,64,1,3,9999,1367,c9a8ce1f5cccf9534266c706b538c6ca
1,116,91,82,1,4,9999,1168,c9a8ce1f5cccf9534266c706b538c6ca
1,117,73,10,1,2,9999,1295,c9a8ce1f5cccf9534266c706b538c6ca
1,118,73,91,1,4,9999,1262,c9a8ce1f5cccf9534266c706b538c6ca
1,119,91,28,1,2,9999,1207,c9a8ce1f5cccf9534266c706b538c6ca
1,120,55,91,1,4,9999,665,c9a8ce1f5cccf9534266c706b538c6ca
1,121,10,19,1,1,9999,1044,c9a8ce1f5cccf9534266c706b538c6ca
1,122,73,55,1,4,9999,697,c9a8ce1f5cccf9534266c706b538c6ca
1,123,10,28,1,2,9999,1558,c9a8ce1f5cccf9534266c706b538c6ca
1,124,55,64,1,4,9999,898,c9a8ce1f5cccf9534266c706b538c6ca
1,125,46,46,1,4,9999,1072,c9a8ce1f5cccf9534266c706b538c6ca
1,126,82,46,1,3,9999,1878,c9a8ce1f5cccf9534266c706b538c6ca
1,127,46,91,1,4,9999,941,c9a8ce1f5cccf9534266c706b538c6ca
1,128,82,10,1,2,9999,2450,c9a8ce1f5cccf9534266c706b538c6ca
1,129,82,10,1,4,9999,752,c9a8ce1f5cccf9534266c706b538c6ca
1,130,91,73,1,4,9999,1609,c9a8ce1f5cccf9534266c706b538c6ca
1,131,19,91,1,4,9999,1922,c9a8ce1f5cccf9534266c706b538c6ca
1,132,73,73,1,4,9999,942,c9a8ce1f5cccf9534266c706b538c6ca
1,133,55,73,1,3,9999,2392,c9a8ce1f5cccf9534266c706b538c6ca
1,134,82,19,1,4,9999,1087,c9a8ce1f5cccf9534266c706b538c6ca
1,135,28,37,1,4,9999,937,c9a8ce1f5cccf9534266c706b538c6ca
1,136,28,28,1,2,9999,1137,c9a8ce1f5cccf9534266c706b538c6ca
1,137,73,37,1,4,9999,1580,c9a8ce1f5cccf9534266c706b538c6ca
1,138,10,73,1,4,9999,2065,c9a8ce1f5cccf9534266c706b538c6ca
1,139,91,46,1,4,9999,1416,c9a8ce1f5cccf9534266c706b538c6ca
1,140,10,10,1,2,9999,2563,c9a8ce1f5cccf9534266c706b538c6ca
1,141,91,10,1,4,9999,1417,c9a8ce1f5cccf9534266c706b538c6ca
1,142,28,55,1,3,9999,2113,c9a8ce1f5cccf9534266c706b538c6ca
1,143,82,46,1,3,9999,1426,c9a8ce1f5cccf9534266c706b538c6ca
1,144,10,37,1,2,9999,3044,c9a8ce1f5cccf9534266c706b538c6ca
1,145,73,73,1,4,9999,2821,c9a8ce1f5cccf9534266c706b538c6ca
1,146,64,28,1,2,9999,3151,c9a8ce1f5cccf9534266c706b538c6ca
1,147,82,55,1,2,9999,1373,c9a8ce1f5cccf9534266c706b538c6ca
1,148,91,91,1,4,9999,1500,c9a8ce1f5cccf9534266c706b538c6ca
1,149,55,28,1,1,9999,1560,c9a8ce1f5cccf9534266c706b538c6ca
1,150,73,19,1,4,9999,1445,c9a8ce1f5cccf9534266c706b538c6ca
1,151,64,37,1,4,9999,1082,c9a8ce1f5cccf9534266c706b538c6ca
1,152,64,91,1,4,9999,1109,c9a8ce1f5cccf9534266c706b538c6ca
1,153,19,46,1,2,9999,1047,c9a8ce1f5cccf9534266c706b538c6ca
1,154,64,55,1,4,9999,1094,c9a8ce1f5cccf9534266c706b538c6ca
1,155,46,37,1,1,9999,1161,c9a8ce1f5cccf9534266c706b538c6ca
1,156,46,64,1,4,9999,1307,c9a8ce1f5cccf9534266c706b538c6ca
1,157,19,64,1,4,9999,1821,c9a8ce1f5cccf9534266c706b538c6ca
1,158,10,55,1,2,9999,1216,c9a8ce1f5cccf9534266c706b538c6ca
1,159,10,46,1,3,9999,1198,c9a8ce1f5cccf9534266c706b538c6ca
1,160,73,64,1,1,9999,18197,c9a8ce1f5cccf9534266c706b538c6ca
1,161,55,46,1,3,9999,1178,c9a8ce1f5cccf9534266c706b538c6ca
1,162,10,73,1,4,9999,828,c9a8ce1f5cccf9534266c706b538c6ca
1,163,37,37,1,4,9999,1507,c9a8ce1f5cccf9534266c706b538c6ca
1,164,64,91,1,4,9999,628,c9a8ce1f5cccf9534266c706b538c6ca
1,165,28,64,1,2,9999,717,c9a8ce1f5cccf9534266c706b538c6ca
1,166,91,19,1,4,9999,402,c9a8ce1f5cccf9534266c706b538c6ca
1,167,37,64,1,4,9999,518,c9a8ce1f5cccf9534266c706b538c6ca
1,168,73,19,1,4,9999,433,c9a8ce1f5cccf9534266c706b538c6ca
1,169,55,28,1,4,9999,457,c9a8ce1f5cccf9534266c706b538c6ca
1,170,73,73,1,3,9999,632,c9a8ce1f5cccf9534266c706b538c6ca
1,171,28,46,1,4,9999,708,c9a8ce1f5cccf9534266c706b538c6ca
1,172,46,55,1,1,9999,755,c9a8ce1f5cccf9534266c706b538c6ca
1,173,10,10,1,4,9999,444,c9a8ce1f5cccf9534266c706b538c6ca
1,174,37,37,1,2,9999,468,c9a8ce1f5cccf9534266c706b538c6ca
1,175,91,73,1,4,9999,340,c9a8ce1f5cccf9534266c706b538c6ca
1,176,46,10,1,1,9999,859,c9a8ce1f5cccf9534266c706b538c6ca
1,177,19,55,1,4,9999,376,c9a8ce1f5cccf9534266c706b538c6ca
1,178,91,10,1,4,9999,445,c9a8ce1f5cccf9534266c706b538c6ca
1,179,37,73,1,4,9999,876,c9a8ce1f5cccf9534266c706b538c6ca
1,180,91,64,1,4,9999,908,c9a8ce1f5cccf9534266c706b538c6ca
1,181,46,82,1,4,9999,1231,c9a8ce1f5cccf9534266c706b538c6ca
1,182,91,28,1,2,9999,838,c9a8ce1f5cccf9534266c706b538c6ca
1,183,28,73,1,4,9999,508,c9a8ce1f5cccf9534266c706b538c6ca
1,184,46,73,1,4,9999,746,c9a8ce1f5cccf9534266c706b538c6ca
1,185,28,73,1,4,9999,696,c9a8ce1f5cccf9534266c706b538c6ca
1,186,73,55,1,2,9999,649,c9a8ce1f5cccf9534266c706b538c6ca
1,187,46,55,1,4,9999,483,c9a8ce1f5cccf9534266c706b538c6ca
1,188,91,10,1,1,9999,733,c9a8ce1f5cccf9534266c706b538c6ca
1,189,91,37,1,4,9999,397,c9a8ce1f5cccf9534266c706b538c6ca
1,190,37,19,1,3,9999,469,c9a8ce1f5cccf9534266c706b538c6ca
1,191,91,37,1,4,9999,440,c9a8ce1f5cccf9534266c706b538c6ca
1,192,55,64,1,3,9999,399,c9a8ce1f5cccf9534266c706b538c6ca
1,193,10,64,1,4,9999,991,c9a8ce1f5cccf9534266c706b538c6ca
1,194,91,55,1,2,9999,486,c9a8ce1f5cccf9534266c706b538c6ca
1,195,64,82,1,4,9999,316,c9a8ce1f5cccf9534266c706b538c6ca
1,196,91,19,1,4,9999,367,c9a8ce1f5cccf9534266c706b538c6ca
1,197,82,28,1,3,9999,456,c9a8ce1f5cccf9534266c706b538c6ca
1,198,82,91,1,4,9999,425,c9a8ce1f5cccf9534266c706b538c6ca
1,199,28,37,1,4,9999,426,c9a8ce1f5cccf9534266c706b538c6ca
1,200,46,37,1,1,9999,407,c9a8ce1f5cccf9534266c706b538c6ca
1,201,19,46,1,4,9999,337,c9a8ce1f5cccf9534266c706b538c6ca
1,202,19,37,1,4,9999,399,c9a8ce1f5cccf9534266c706b538c6ca
1,203,91,64,1,4,9999,752,c9a8ce1f5cccf9534266c706b538c6ca
1,204,37,64,1,3,9999,904,c9a8ce1f5cccf9534266c706b538c6ca
1,205,37,64,1,4,9999,440,c9a8ce1f5cccf9534266c706b538c6ca
1,206,64,46,1,4,9999,414,c9a8ce1f5cccf9534266c706b538c6ca
1,207,37,46,1,4,9999,461,c9a8ce1f5cccf9534266c706b538c6ca
1,208,10,82,1,3,9999,389,c9a8ce1f5cccf9534266c706b538c6ca
1,209,82,64,1,4,9999,691,c9a8ce1f5cccf9534266c706b538c6ca
1,210,19,37,1,4,9999,1027,c9a8ce1f5cccf9534266c706b538c6ca
1,211,28,28,1,3,9999,515,c9a8ce1f5cccf9534266c706b538c6ca
1,212,19,37,1,4,9999,275,c9a8ce1f5cccf9534266c706b538c6ca
1,213,10,37,1,4,9999,515,c9a8ce1f5cccf9534266c706b538c6ca
1,214,46,91,1,4,9999,741,c9a8ce1f5cccf9534266c706b538c6ca
1,215,19,10,1,1,9999,561,c9a8ce1f5cccf9534266c706b538c6ca
1,216,37,55,1,4,9999,626,c9a8ce1f5cccf9534266c706b538c6ca
1,217,46,64,1,3,9999,562,c9a8ce1f5cccf9534266c706b538c6ca
1,218,46,55,1,4,9999,614,c9a8ce1f5cccf9534266c706b538c6ca
1,219,28,82,1,4,9999,431,c9a8ce1f5cccf9534266c706b538c6ca
1,220,37,91,1,3,9999,512,c9a8ce1f5cccf9534266c706b538c6ca
1,221,46,28,1,4,9999,432,c9a8ce1f5cccf9534266c706b538c6ca
1,222,73,19,1,4,9999,476,c9a8ce1f5cccf9534266c706b538c6ca
1,223,19,55,1,3,9999,623,c9a8ce1f5cccf9534266c706b538c6ca
1,224,73,10,1,4,9999,351,c9a8ce1f5cccf9534266c706b538c6ca
1,225,28,46,1,4,9999,557,c9a8ce1f5cccf9534266c706b538c6ca
1,226,82,37,1,3,9999,1496,c9a8ce1f5cccf9534266c706b538c6ca
1,227,19,91,1,4,9999,566,c9a8ce1f5cccf9534266c706b538c6ca
1,228,91,19,1,1,9999,768,c9a8ce1f5cccf9534266c706b538c6ca
1,229,82,28,1,2,9999,710,c9a8ce1f5cccf9534266c706b538c6ca
1,230,19,91,1,4,9999,395,c9a8ce1f5cccf9534266c706b538c6ca
1,231,37,46,1,4,9999,513,c9a8ce1f5cccf9534266c706b538c6ca
1,232,46,55,1,4,9999,389,c9a8ce1f5cccf9534266c706b538c6ca
1,233,55,73,1,4,9999,430,c9a8ce1f5cccf9534266c706b538c6ca
1,234,64,19,1,4,9999,427,c9a8ce1f5cccf9534266c706b538c6ca
1,235,64,37,1,1,9999,351,c9a8ce1f5cccf9534266c706b538c6ca
1,236,46,46,1,4,9999,430,c9a8ce1f5cccf9534266c706b538c6ca
1,237,19,19,1,4,9999,318,c9a8ce1f5cccf9534266c706b538c6ca
1,238,28,73,1,2,9999,346,c9a8ce1f5cccf9534266c706b538c6ca
1,239,73,82,1,4,9999,228,c9a8ce1f5cccf9534266c706b538c6ca
1,240,55,82,1,4,9999,405,c9a8ce1f5cccf9534266c706b538c6ca
1,241,91,37,1,2,9999,601,c9a8ce1f5cccf9534266c706b538c6ca
1,242,55,10,1,4,9999,441,c9a8ce1f5cccf9534266c706b538c6ca
1,243,37,64,1,4,9999,466,c9a8ce1f5cccf9534266c706b538c6ca
1,244,19,28,1,4,9999,439,c9a8ce1f5cccf9534266c706b538c6ca
1,245,64,64,1,4,9999,505,c9a8ce1f5cccf9534266c706b538c6ca
1,246,64,82,1,4,9999,464,c9a8ce1f5cccf9534266c706b538c6ca
1,247,37,37,1,4,9999,528,c9a8ce1f5cccf9534266c706b538c6ca
1,248,64,55,1,2,9999,576,c9a8ce1f5cccf9534266c706b538c6ca
1,249,46,82,1,4,9999,395,c9a8ce1f5cccf9534266c706b538c6ca
1,250,82,82,1,4,9999,507,c9a8ce1f5cccf9534266c706b538c6ca
1,251,28,19,1,4,9999,369,c9a8ce1f5cccf9534266c706b538c6ca
1,252,55,10,1,3,9999,495,c9a8ce1f5cccf9534266c706b538c6ca
1,253,37,82,1,4,9999,2414,c9a8ce1f5cccf9534266c706b538c6ca
1,254,73,37,1,1,9999,619,c9a8ce1f5cccf9534266c706b538c6ca
1,255,73,28,1,4,9999,926,c9a8ce1f5cccf9534266c706b538c6ca
1,256,73,37,1,4,9999,2877,c9a8ce1f5cccf9534266c706b538c6ca
1,257,82,64,1,3,9999,858,c9a8ce1f5cccf9534266c706b538c6ca
1,258,46,28,1,4,9999,419,c9a8ce1f5cccf9534266c706b538c6ca
1,259,10,28,1,1,9999,694,c9a8ce1f5cccf9534266c706b538c6ca
1,260,55,19,1,2,9999,599,c9a8ce1f5cccf9534266c706b538c6ca
1,261,10,82,1,4,9999,586,c9a8ce1f5cccf9534266c706b538c6ca
1,262,73,64,1,2,9999,467,c9a8ce1f5cccf9534266c706b538c6ca
1,263,37,10,1,1,9999,518,c9a8ce1f5cccf9534266c706b538c6ca
1,264,55,19,1,4,9999,650,c9a8ce1f5cccf9534266c706b538c6ca
1,265,46,82,1,4,9999,723,c9a8ce1f5cccf9534266c706b538c6ca
1,266,91,55,1,1,9999,495,c9a8ce1f5cccf9534266c706b538c6ca
1,267,10,46,1,4,9999,1218,c9a8ce1f5cccf9534266c706b538c6ca
1,268,55,73,1,2,9999,517,c9a8ce1f5cccf9534266c706b538c6ca
1,269,91,64,1,3,9999,559,c9a8ce1f5cccf9534266c706b538c6ca
1,270,28,91,1,3,9999,631,c9a8ce1f5cccf9534266c706b538c6ca
1,271,19,73,1,4,9999,836,c9a8ce1f5cccf9534266c706b538c6ca
1,272,64,28,1,2,9999,1647,c9a8ce1f5cccf9534266c706b538c6ca
1,273,64,10,1,1,9999,742,c9a8ce1f5cccf9534266c706b538c6ca
1,274,82,28,1,4,9999,673,c9a8ce1f5cccf9534266c706b538c6ca
1,275,82,73,1,4,9999,495,c9a8ce1f5cccf9534266c706b538c6ca
1,276,91,64,1,4,9999,762,c9a8ce1f5cccf9534266c706b538c6ca
1,277,55,19,1,4,9999,1596,c9a8ce1f5cccf9534266c706b538c6ca
1,278,73,55,1,4,9999,696,c9a8ce1f5cccf9534266c706b538c6ca
1,279,46,46,1,4,9999,931,c9a8ce1f5cccf9534266c706b538c6ca
1,280,37,73,1,4,9999,985,c9a8ce1f5cccf9534266c706b538c6ca
1,281,91,19,1,1,9999,654,c9a8ce1f5cccf9534266c706b538c6ca
1,282,73,82,1,4,9999,522,c9a8ce1f5cccf9534266c706b538c6ca
1,283,46,10,1,2,9999,698,c9a8ce1f5cccf9534266c706b538c6ca
1,284,82,37,1,4,9999,561,c9a8ce1f5cccf9534266c706b538c6ca
1,285,64,91,1,4,9999,614,c9a8ce1f5cccf9534266c706b538c6ca
1,286,46,46,1,4,9999,3117,c9a8ce1f5cccf9534266c706b538c6ca
1,287,64,82,1,4,9999,818,c9a8ce1f5cccf9534266c706b538c6ca
1,288,46,55,1,4,9999,612,c9a8ce1f5cccf9534266c706b538c6ca
1,289,46,37,1,4,9999,415,c9a8ce1f5cccf9534266c706b538c6ca
1,290,28,82,1,4,9999,612,c9a8ce1f5cccf9534266c706b538c6ca
1,291,64,46,1,4,9999,416,c9a8ce1f5cccf9534266c706b538c6ca
1,292,82,91,1,1,9999,282,c9a8ce1f5cccf9534266c706b538c6ca
1,293,64,55,1,4,9999,461,c9a8ce1f5cccf9534266c706b538c6ca
1,294,37,10,1,4,9999,797,c9a8ce1f5cccf9534266c706b538c6ca
1,295,64,82,1,4,9999,421,c9a8ce1f5cccf9534266c706b538c6ca
1,296,91,91,1,4,9999,320,c9a8ce1f5cccf9534266c706b538c6ca
1,297,28,37,1,1,9999,504,c9a8ce1f5cccf9534266c706b538c6ca
1,298,10,91,1,4,9999,509,c9a8ce1f5cccf9534266c706b538c6ca
1,299,91,28,1,4,9999,371,c9a8ce1f5cccf9534266c706b538c6ca
1,300,73,82,1,4,9999,796,c9a8ce1f5cccf9534266c706b538c6ca
1,301,37,37,1,1,9999,600,c9a8ce1f5cccf9534266c706b538c6ca
1,302,82,82,1,4,9999,646,c9a8ce1f5cccf9534266c706b538c6ca
1,303,73,28,1,2,9999,848,c9a8ce1f5cccf9534266c706b538c6ca
1,304,55,82,1,4,9999,732,c9a8ce1f5cccf9534266c706b538c6ca
1,305,64,28,1,1,9999,1401,c9a8ce1f5cccf9534266c706b538c6ca
1,306,19,10,1,4,9999,3322,c9a8ce1f5cccf9534266c706b538c6ca
1,307,55,37,1,4,9999,640,c9a8ce1f5cccf9534266c706b538c6ca
1,308,64,46,1,1,9999,843,c9a8ce1f5cccf9534266c706b538c6ca
1,309,91,73,1,4,9999,829,c9a8ce1f5cccf9534266c706b538c6ca
1,310,28,91,1,4,9999,966,c9a8ce1f5cccf9534266c706b538c6ca
1,311,82,28,1,1,9999,945,c9a8ce1f5cccf9534266c706b538c6ca
1,312,91,82,1,4,9999,416,c9a8ce1f5cccf9534266c706b538c6ca
1,313,91,37,1,4,9999,286,c9a8ce1f5cccf9534266c706b538c6ca
1,314,73,73,1,4,9999,1247,c9a8ce1f5cccf9534266c706b538c6ca
1,315,10,64,1,4,9999,715,c9a8ce1f5cccf9534266c706b538c6ca
1,316,73,82,1,4,9999,859,c9a8ce1f5cccf9534266c706b538c6ca
1,317,64,37,1,4,9999,517,c9a8ce1f5cccf9534266c706b538c6ca
1,318,82,55,1,1,9999,423,c9a8ce1f5cccf9534266c706b538c6ca
1,319,55,28,1,4,9999,347,c9a8ce1f5cccf9534266c706b538c6ca
1,320,91,10,1,1,9999,29142,c9a8ce1f5cccf9534266c706b538c6ca
1,321,55,64,1,3,9999,1166,c9a8ce1f5cccf9534266c706b538c6ca
1,322,28,10,1,1,9999,995,c9a8ce1f5cccf9534266c706b538c6ca
1,323,37,28,1,4,9999,392,c9a8ce1f5cccf9534266c706b538c6ca
1,324,55,10,1,2,9999,171,c9a8ce1f5cccf9534266c706b538c6ca
1,325,73,82,1,4,9999,340,c9a8ce1f5cccf9534266c706b538c6ca
1,326,64,64,1,4,9999,397,c9a8ce1f5cccf9534266c706b538c6ca
1,327,64,82,1,4,9999,933,c9a8ce1f5cccf9534266c706b538c6ca
1,328,28,19,1,1,9999,601,c9a8ce1f5cccf9534266c706b538c6ca
1,329,37,73,1,4,9999,1268,c9a8ce1f5cccf9534266c706b538c6ca
1,330,64,55,1,2,9999,1588,c9a8ce1f5cccf9534266c706b538c6ca
1,331,82,82,1,4,9999,551,c9a8ce1f5cccf9534266c706b538c6ca
1,332,19,64,1,4,9999,939,c9a8ce1f5cccf9534266c706b538c6ca
1,333,64,46,1,1,9999,597,c9a8ce1f5cccf9534266c706b538c6ca
1,334,37,10,1,4,9999,878,c9a8ce1f5cccf9534266c706b538c6ca
1,335,64,19,1,4,9999,433,c9a8ce1f5cccf9534266c706b538c6ca
1,336,64,37,1,4,9999,689,c9a8ce1f5cccf9534266c706b538c6ca
1,337,19,55,1,1,9999,624,c9a8ce1f5cccf9534266c706b538c6ca
1,338,46,73,1,4,9999,450,c9a8ce1f5cccf9534266c706b538c6ca
1,339,82,73,1,4,9999,698,c9a8ce1f5cccf9534266c706b538c6ca
1,340,64,73,1,4,9999,687,c9a8ce1f5cccf9534266c706b538c6ca
1,341,64,73,1,4,9999,551,c9a8ce1f5cccf9534266c706b538c6ca
1,342,73,10,1,1,9999,859,c9a8ce1f5cccf9534266c706b538c6ca
1,343,46,91,1,4,9999,554,c9a8ce1f5cccf9534266c706b538c6ca
1,344,82,37,1,4,9999,795,c9a8ce1f5cccf9534266c706b538c6ca
1,345,10,10,1,1,9999,1064,c9a8ce1f5cccf9534266c706b538c6ca
1,346,37,46,1,4,9999,765,c9a8ce1f5cccf9534266c706b538c6ca
1,347,55,46,1,4,9999,670,c9a8ce1f5cccf9534266c706b538c6ca
1,348,19,73,1,4,9999,619,c9a8ce1f5cccf9534266c706b538c6ca
1,349,55,91,1,4,9999,484,c9a8ce1f5cccf9534266c706b538c6ca
1,350,73,28,1,4,9999,153,c9a8ce1f5cccf9534266c706b538c6ca
1,351,82,46,1,4,9999,767,c9a8ce1f5cccf9534266c706b538c6ca
1,352,73,91,1,4,9999,735,c9a8ce1f5cccf9534266c706b538c6ca
1,353,82,10,1,1,9999,699,c9a8ce1f5cccf9534266c706b538c6ca
1,354,73,10,1,4,9999,501,c9a8ce1f5cccf9534266c706b538c6ca
1,355,37,10,1,4,9999,596,c9a8ce1f5cccf9534266c706b538c6ca
1,356,37,19,1,4,9999,603,c9a8ce1f5cccf9534266c706b538c6ca
1,357,10,46,1,4,9999,760,c9a8ce1f5cccf9534266c706b538c6ca
1,358,28,10,1,4,9999,784,c9a8ce1f5cccf9534266c706b538c6ca
1,359,19,55,1,4,9999,659,c9a8ce1f5cccf9534266c706b538c6ca
1,360,10,73,1,4,9999,655,c9a8ce1f5cccf9534266c706b538c6ca
1,361,82,10,1,4,9999,2834,c9a8ce1f5cccf9534266c706b538c6ca
1,362,46,10,1,4,9999,1344,c9a8ce1f5cccf9534266c706b538c6ca
1,363,91,64,1,4,9999,1398,c9a8ce1f5cccf9534266c706b538c6ca
1,364,82,37,1,4,9999,2217,c9a8ce1f5cccf9534266c706b538c6ca
1,365,91,91,1,2,9999,2915,c9a8ce1f5cccf9534266c706b538c6ca
1,366,91,55,1,4,9999,742,c9a8ce1f5cccf9534266c706b538c6ca
1,367,10,46,1,1,9999,709,c9a8ce1f5cccf9534266c706b538c6ca
1,368,28,73,1,4,9999,473,c9a8ce1f5cccf9534266c706b538c6ca
1,369,73,10,1,4,9999,669,c9a8ce1f5cccf9534266c706b538c6ca
1,370,64,10,1,4,9999,465,c9a8ce1f5cccf9534266c706b538c6ca
1,371,82,55,1,4,9999,963,c9a8ce1f5cccf9534266c706b538c6ca
1,372,10,91,1,4,9999,1119,c9a8ce1f5cccf9534266c706b538c6ca
1,373,46,73,1,4,9999,707,c9a8ce1f5cccf9534266c706b538c6ca
1,374,82,73,1,4,9999,1758,c9a8ce1f5cccf9534266c706b538c6ca
1,375,28,91,1,4,9999,726,c9a8ce1f5cccf9534266c706b538c6ca
1,376,46,64,1,4,9999,790,c9a8ce1f5cccf9534266c706b538c6ca
1,377,10,64,1,4,9999,960,c9a8ce1f5cccf9534266c706b538c6ca
1,378,37,91,1,4,9999,747,c9a8ce1f5cccf9534266c706b538c6ca
1,379,55,73,1,4,9999,1694,c9a8ce1f5cccf9534266c706b538c6ca
1,380,91,82,1,4,9999,830,c9a8ce1f5cccf9534266c706b538c6ca
1,381,73,55,1,4,9999,375,c9a8ce1f5cccf9534266c706b538c6ca
1,382,28,46,1,3,9999,981,c9a8ce1f5cccf9534266c706b538c6ca
1,383,37,19,1,4,9999,925,c9a8ce1f5cccf9534266c706b538c6ca
1,384,82,55,1,1,9999,1293,c9a8ce1f5cccf9534266c706b538c6ca
1,385,46,37,1,4,9999,705,c9a8ce1f5cccf9534266c706b538c6ca
1,386,28,64,1,4,9999,586,c9a8ce1f5cccf9534266c706b538c6ca
1,387,64,73,1,4,9999,925,c9a8ce1f5cccf9534266c706b538c6ca
1,388,19,73,1,4,9999,1494,c9a8ce1f5cccf9534266c706b538c6ca
1,389,46,91,1,4,9999,1510,c9a8ce1f5cccf9534266c706b538c6ca
1,390,19,73,1,4,9999,1560,c9a8ce1f5cccf9534266c706b538c6ca
1,391,10,10,1,4,9999,9399,c9a8ce1f5cccf9534266c706b538c6ca
1,392,46,19,1,4,9999,949,c9a8ce1f5cccf9534266c706b538c6ca
1,393,10,64,1,4,9999,705,c9a8ce1f5cccf9534266c706b538c6ca
1,394,19,28,1,1,9999,589,c9a8ce1f5cccf9534266c706b538c6ca
1,395,19,28,1,2,9999,1062,c9a8ce1f5cccf9534266c706b538c6ca
1,396,28,82,1,4,9999,582,c9a8ce1f5cccf9534266c706b538c6ca
1,397,37,82,1,4,9999,1126,c9a8ce1f5cccf9534266c706b538c6ca
1,398,19,82,1,3,9999,904,c9a8ce1f5cccf9534266c706b538c6ca
1,399,28,91,1,4,9999,535,c9a8ce1f5cccf9534266c706b538c6ca
1,400,19,64,1,4,9999,439,c9a8ce1f5cccf9534266c706b538c6ca
1,401,91,46,1,1,9999,595,c9a8ce1f5cccf9534266c706b538c6ca
1,402,91,37,1,4,9999,387,c9a8ce1f5cccf9534266c706b538c6ca
1,403,55,46,1,4,9999,392,c9a8ce1f5cccf9534266c706b538c6ca
1,404,10,82,1,4,9999,295,c9a8ce1f5cccf9534266c706b538c6ca
1,405,91,64,1,1,9999,532,c9a8ce1f5cccf9534266c706b538c6ca
1,406,91,82,1,4,9999,192,c9a8ce1f5cccf9534266c706b538c6ca
1,407,73,82,1,4,9999,324,c9a8ce1f5cccf9534266c706b538c6ca
1,408,10,55,1,4,9999,186,c9a8ce1f5cccf9534266c706b538c6ca
1,409,28,82,1,2,9999,168,c9a8ce1f5cccf9534266c706b538c6ca
1,410,10,55,1,4,9999,395,c9a8ce1f5cccf9534266c706b538c6ca
1,411,46,28,1,3,9999,296,c9a8ce1f5cccf9534266c706b538c6ca
1,412,55,91,1,4,9999,320,c9a8ce1f5cccf9534266c706b538c6ca
1,413,64,73,1,4,9999,670,c9a8ce1f5cccf9534266c706b538c6ca
1,414,19,46,1,4,9999,948,c9a8ce1f5cccf9534266c706b538c6ca
1,415,10,73,1,4,9999,1292,c9a8ce1f5cccf9534266c706b538c6ca
1,416,91,55,1,1,9999,1223,c9a8ce1f5cccf9534266c706b538c6ca
1,417,91,73,1,4,9999,4135,c9a8ce1f5cccf9534266c706b538c6ca
1,418,64,19,1,1,9999,956,c9a8ce1f5cccf9534266c706b538c6ca
1,419,82,91,1,4,9999,521,c9a8ce1f5cccf9534266c706b538c6ca
1,420,19,82,1,4,9999,358,c9a8ce1f5cccf9534266c706b538c6ca
1,421,73,46,1,4,9999,488,c9a8ce1f5cccf9534266c706b538c6ca
1,422,10,28,1,4,9999,223,c9a8ce1f5cccf9534266c706b538c6ca
1,423,46,19,1,1,9999,510,c9a8ce1f5cccf9534266c706b538c6ca
1,424,73,37,1,4,9999,728,c9a8ce1f5cccf9534266c706b538c6ca
1,425,46,82,1,4,9999,736,c9a8ce1f5cccf9534266c706b538c6ca
1,426,55,91,1,4,9999,629,c9a8ce1f5cccf9534266c706b538c6ca
1,427,91,91,1,4,9999,672,c9a8ce1f5cccf9534266c706b538c6ca
1,428,91,55,1,4,9999,628,c9a8ce1f5cccf9534266c706b538c6ca
1,429,55,82,1,4,9999,767,c9a8ce1f5cccf9534266c706b538c6ca
1,430,91,28,1,4,9999,344,c9a8ce1f5cccf9534266c706b538c6ca
1,431,10,64,1,4,9999,548,c9a8ce1f5cccf9534266c706b538c6ca
1,432,91,82,1,4,9999,1523,c9a8ce1f5cccf9534266c706b538c6ca
1,433,82,73,1,3,9999,902,c9a8ce1f5cccf9534266c706b538c6ca
1,434,19,37,1,3,9999,1248,c9a8ce1f5cccf9534266c706b538c6ca
1,435,64,73,1,4,9999,1559,c9a8ce1f5cccf9534266c706b538c6ca
1,436,37,46,1,1,9999,914,c9a8ce1f5cccf9534266c706b538c6ca
1,437,19,91,1,4,9999,1383,c9a8ce1f5cccf9534266c706b538c6ca
1,438,46,37,1,4,9999,634,c9a8ce1f5cccf9534266c706b538c6ca
1,439,28,73,1,4,9999,581,c9a8ce1f5cccf9534266c706b538c6ca
1,440,73,10,1,4,9999,533,c9a8ce1f5cccf9534266c706b538c6ca
1,441,46,10,1,1,9999,615,c9a8ce1f5cccf9534266c706b538c6ca
1,442,37,91,1,4,9999,595,c9a8ce1f5cccf9534266c706b538c6ca
1,443,19,55,1,4,9999,580,c9a8ce1f5cccf9534266c706b538c6ca
1,444,37,37,1,4,9999,1031,c9a8ce1f5cccf9534266c706b538c6ca
1,445,91,73,1,4,9999,536,c9a8ce1f5cccf9534266c706b538c6ca
1,446,37,37,1,4,9999,1233,c9a8ce1f5cccf9534266c706b538c6ca
1,447,55,55,1,4,9999,1443,c9a8ce1f5cccf9534266c706b538c6ca
1,448,91,73,1,1,9999,1151,c9a8ce1f5cccf9534266c706b538c6ca
1,449,28,64,1,4,9999,4880,c9a8ce1f5cccf9534266c706b538c6ca
1,450,82,10,1,3,9999,414,c9a8ce1f5cccf9534266c706b538c6ca
1,451,37,19,1,4,9999,528,c9a8ce1f5cccf9534266c706b538c6ca
1,452,37,91,1,4,9999,602,c9a8ce1f5cccf9534266c706b538c6ca
1,453,19,82,1,1,9999,947,c9a8ce1f5cccf9534266c706b538c6ca
1,454,10,37,1,4,9999,546,c9a8ce1f5cccf9534266c706b538c6ca
1,455,73,91,1,4,9999,718,c9a8ce1f5cccf9534266c706b538c6ca
1,456,73,19,1,1,9999,1093,c9a8ce1f5cccf9534266c706b538c6ca
1,457,46,28,1,4,9999,898,c9a8ce1f5cccf9534266c706b538c6ca
1,458,73,91,1,4,9999,807,c9a8ce1f5cccf9534266c706b538c6ca
1,459,46,91,1,4,9999,984,c9a8ce1f5cccf9534266c706b538c6ca
1,460,82,55,1,2,9999,1135,c9a8ce1f5cccf9534266c706b538c6ca
1,461,19,10,1,2,9999,672,c9a8ce1f5cccf9534266c706b538c6ca
1,462,46,64,1,4,9999,599,c9a8ce1f5cccf9534266c706b538c6ca
1,463,28,55,1,1,9999,845,c9a8ce1f5cccf9534266c706b538c6ca
1,464,19,10,1,1,9999,553,c9a8ce1f5cccf9534266c706b538c6ca
1,465,28,64,1,4,9999,555,c9a8ce1f5cccf9534266c706b538c6ca
1,466,64,28,1,4,9999,735,c9a8ce1f5cccf9534266c706b538c6ca
1,467,91,82,1,4,9999,886,c9a8ce1f5cccf9534266c706b538c6ca
1,468,10,46,1,1,9999,843,c9a8ce1f5cccf9534266c706b538c6ca
1,469,37,55,1,4,9999,809,c9a8ce1f5cccf9534266c706b538c6ca
1,470,37,64,1,3,9999,955,c9a8ce1f5cccf9534266c706b538c6ca
1,471,73,46,1,4,9999,429,c9a8ce1f5cccf9534266c706b538c6ca
1,472,82,46,1,1,9999,802,c9a8ce1f5cccf9534266c706b538c6ca
1,473,64,19,1,4,9999,505,c9a8ce1f5cccf9534266c706b538c6ca
1,474,64,37,1,4,9999,553,c9a8ce1f5cccf9534266c706b538c6ca
1,475,73,73,1,1,9999,889,c9a8ce1f5cccf9534266c706b538c6ca
1,476,10,19,1,4,9999,451,c9a8ce1f5cccf9534266c706b538c6ca
1,477,64,91,1,1,9999,810,c9a8ce1f5cccf9534266c706b538c6ca
1,478,19,19,1,4,9999,305,c9a8ce1f5cccf9534266c706b538c6ca
1,479,82,91,1,4,9999,630,c9a8ce1f5cccf9534266c706b538c6ca
1,480,37,28,1,4,9999,3595,c9a8ce1f5cccf9534266c706b538c6ca
1,481,19,91,1,4,9999,841,c9a8ce1f5cccf9534266c706b538c6ca
1,482,10,55,1,1,9999,775,c9a8ce1f5cccf9534266c706b538c6ca
1,483,91,91,1,4,9999,517,c9a8ce1f5cccf9534266c706b538c6ca
1,484,73,55,1,4,9999,660,c9a8ce1f5cccf9534266c706b538c6ca
1,485,46,82,1,4,9999,678,c9a8ce1f5cccf9534266c706b538c6ca
1,486,28,19,1,1,9999,814,c9a8ce1f5cccf9534266c706b538c6ca
1,487,46,64,1,4,9999,319,c9a8ce1f5cccf9534266c706b538c6ca
1,488,28,55,1,4,9999,574,c9a8ce1f5cccf9534266c706b538c6ca
1,489,55,37,1,4,9999,444,c9a8ce1f5cccf9534266c706b538c6ca
1,490,37,46,1,1,9999,337,c9a8ce1f5cccf9534266c706b538c6ca
1,491,55,82,1,4,9999,330,c9a8ce1f5cccf9534266c706b538c6ca
1,492,19,37,1,4,9999,793,c9a8ce1f5cccf9534266c706b538c6ca
1,493,10,28,1,4,9999,480,c9a8ce1f5cccf9534266c706b538c6ca
1,494,64,19,1,4,9999,361,c9a8ce1f5cccf9534266c706b538c6ca
1,495,64,28,1,1,9999,315,c9a8ce1f5cccf9534266c706b538c6ca
1,496,28,37,1,4,9999,286,c9a8ce1f5cccf9534266c706b538c6ca
1,497,91,19,1,4,9999,371,c9a8ce1f5cccf9534266c706b538c6ca
1,498,91,37,1,4,9999,534,c9a8ce1f5cccf9534266c706b538c6ca
1,499,10,82,1,4,9999,329,c9a8ce1f5cccf9534266c706b538c6ca
1,500,28,46,1,4,9999,468,c9a8ce1f5cccf9534266c706b538c6ca
1,501,37,10,1,1,9999,304,c9a8ce1f5cccf9534266c706b538c6ca
1,502,10,73,1,1,9999,506,c9a8ce1f5cccf9534266c706b538c6ca
1,503,82,19,1,4,9999,1600,c9a8ce1f5cccf9534266c706b538c6ca
1,504,55,82,1,4,9999,1588,c9a8ce1f5cccf9534266c706b538c6ca
1,505,55,37,1,1,9999,734,c9a8ce1f5cccf9534266c706b538c6ca
1,506,55,19,1,2,9999,781,c9a8ce1f5cccf9534266c706b538c6ca
1,507,73,46,1,4,9999,525,c9a8ce1f5cccf9534266c706b538c6ca
1,508,10,55,1,4,9999,219,c9a8ce1f5cccf9534266c706b538c6ca
1,509,64,46,1,4,9999,800,c9a8ce1f5cccf9534266c706b538c6ca
1,510,73,64,1,4,9999,1107,c9a8ce1f5cccf9534266c706b538c6ca
1,511,46,37,1,1,9999,1718,c9a8ce1f5cccf9534266c706b538c6ca
1,512,73,19,1,4,9999,4357,c9a8ce1f5cccf9534266c706b538c6ca
1,513,73,91,1,4,9999,697,c9a8ce1f5cccf9534266c706b538c6ca
1,514,28,28,1,1,9999,897,c9a8ce1f5cccf9534266c706b538c6ca
1,515,10,55,1,4,9999,539,c9a8ce1f5cccf9534266c706b538c6ca
1,516,37,19,1,1,9999,1516,c9a8ce1f5cccf9534266c706b538c6ca
1,517,28,55,1,4,9999,670,c9a8ce1f5cccf9534266c706b538c6ca
1,518,82,37,1,1,9999,955,c9a8ce1f5cccf9534266c706b538c6ca
1,519,73,46,1,4,9999,715,c9a8ce1f5cccf9534266c706b538c6ca
1,520,55,28,1,4,9999,980,c9a8ce1f5cccf9534266c706b538c6ca
1,521,73,37,1,4,9999,766,c9a8ce1f5cccf9534266c706b538c6ca
1,522,55,55,1,4,9999,831,c9a8ce1f5cccf9534266c706b538c6ca
1,523,64,55,1,2,9999,1336,c9a8ce1f5cccf9534266c706b538c6ca
1,524,37,82,1,4,9999,3008,c9a8ce1f5cccf9534266c706b538c6ca
1,525,64,82,1,1,9999,685,c9a8ce1f5cccf9534266c706b538c6ca
1,526,10,91,1,4,9999,549,c9a8ce1f5cccf9534266c706b538c6ca
1,527,28,91,1,4,9999,4277,c9a8ce1f5cccf9534266c706b538c6ca
1,528,82,19,1,1,9999,675,c9a8ce1f5cccf9534266c706b538c6ca
1,529,82,64,1,1,9999,590,c9a8ce1f5cccf9534266c706b538c6ca
1,530,64,10,1,4,9999,623,c9a8ce1f5cccf9534266c706b538c6ca
1,531,91,46,1,4,9999,1650,c9a8ce1f5cccf9534266c706b538c6ca
1,532,37,28,1,1,9999,842,c9a8ce1f5cccf9534266c706b538c6ca
1,533,46,73,1,4,9999,668,c9a8ce1f5cccf9534266c706b538c6ca
1,534,28,19,1,1,9999,1167,c9a8ce1f5cccf9534266c706b538c6ca
1,535,10,46,1,4,9999,454,c9a8ce1f5cccf9534266c706b538c6ca
1,536,28,91,1,1,9999,334,c9a8ce1f5cccf9534266c706b538c6ca
1,537,28,37,1,4,9999,545,c9a8ce1f5cccf9534266c706b538c6ca
1,538,19,28,1,4,9999,777,c9a8ce1f5cccf9534266c706b538c6ca
1,539,19,28,1,1,9999,744,c9a8ce1f5cccf9534266c706b538c6ca
1,540,55,28,1,4,9999,519,c9a8ce1f5cccf9534266c706b538c6ca
1,541,55,28,1,4,9999,346,c9a8ce1f5cccf9534266c706b538c6ca
1,542,73,64,1,4,9999,450,c9a8ce1f5cccf9534266c706b538c6ca
1,543,19,46,1,4,9999,1307,c9a8ce1f5cccf9534266c706b538c6ca
1,544,91,28,1,4,9999,517,c9a8ce1f5cccf9534266c706b538c6ca
1,545,10,19,1,1,9999,803,c9a8ce1f5cccf9534266c706b538c6ca
1,546,64,28,1,1,9999,1476,c9a8ce1f5cccf9534266c706b538c6ca
1,547,64,64,1,4,9999,655,c9a8ce1f5cccf9534266c706b538c6ca
1,548,46,28,1,1,9999,962,c9a8ce1f5cccf9534266c706b538c6ca
1,549,28,10,1,1,9999,656,c9a8ce1f5cccf9534266c706b538c6ca
1,550,46,46,1,4,9999,628,c9a8ce1f5cccf9534266c706b538c6ca
1,551,28,82,1,4,9999,654,c9a8ce1f5cccf9534266c706b538c6ca
1,552,55,55,1,1,9999,616,c9a8ce1f5cccf9534266c706b538c6ca
1,553,19,28,1,1,9999,566,c9a8ce1f5cccf9534266c706b538c6ca
1,554,37,73,1,4,9999,570,c9a8ce1f5cccf9534266c706b538c6ca
1,555,19,64,1,4,9999,833,c9a8ce1f5cccf9534266c706b538c6ca
1,556,82,46,1,1,9999,1027,c9a8ce1f5cccf9534266c706b538c6ca
1,557,19,82,1,4,9999,590,c9a8ce1f5cccf9534266c706b538c6ca
1,558,37,82,1,1,9999,6295,c9a8ce1f5cccf9534266c706b538c6ca
1,559,28,46,1,1,9999,4498,c9a8ce1f5cccf9534266c706b538c6ca
1,560,37,64,1,1,9999,8184,c9a8ce1f5cccf9534266c706b538c6ca
1,561,82,82,1,4,9999,698,c9a8ce1f5cccf9534266c706b538c6ca
1,562,28,55,1,4,9999,1135,c9a8ce1f5cccf9534266c706b538c6ca
1,563,55,55,1,1,9999,610,c9a8ce1f5cccf9534266c706b538c6ca
1,564,46,19,1,4,9999,748,c9a8ce1f5cccf9534266c706b538c6ca
1,565,19,19,1,4,9999,1197,c9a8ce1f5cccf9534266c706b538c6ca
1,566,64,10,1,1,9999,995,c9a8ce1f5cccf9534266c706b538c6ca
1,567,37,28,1,4,9999,691,c9a8ce1f5cccf9534266c706b538c6ca
1,568,46,73,1,1,9999,761,c9a8ce1f5cccf9534266c706b538c6ca
1,569,46,46,1,3,9999,1311,c9a8ce1f5cccf9534266c706b538c6ca
1,570,37,28,1,4,9999,698,c9a8ce1f5cccf9534266c706b538c6ca
1,571,82,64,1,3,9999,1849,c9a8ce1f5cccf9534266c706b538c6ca
1,572,55,73,1,4,9999,938,c9a8ce1f5cccf9534266c706b538c6ca
1,573,91,28,1,4,9999,992,c9a8ce1f5cccf9534266c706b538c6ca
1,574,19,46,1,4,9999,1348,c9a8ce1f5cccf9534266c706b538c6ca
1,575,28,19,1,4,9999,873,c9a8ce1f5cccf9534266c706b538c6ca
1,576,55,55,1,4,9999,552,c9a8ce1f5cccf9534266c706b538c6ca
1,577,37,55,1,4,9999,424,c9a8ce1f5cccf9534266c706b538c6ca
1,578,46,28,1,1,9999,937,c9a8ce1f5cccf9534266c706b538c6ca
1,579,37,73,1,4,9999,1102,c9a8ce1f5cccf9534266c706b538c6ca
1,580,73,46,1,4,9999,1083,c9a8ce1f5cccf9534266c706b538c6ca
1,581,73,28,1,1,9999,1242,c9a8ce1f5cccf9534266c706b538c6ca
1,582,28,64,1,4,9999,624,c9a8ce1f5cccf9534266c706b538c6ca
1,583,55,19,1,4,9999,589,c9a8ce1f5cccf9534266c706b538c6ca
1,584,73,19,1,4,9999,615,c9a8ce1f5cccf9534266c706b538c6ca
1,585,82,64,1,4,9999,794,c9a8ce1f5cccf9534266c706b538c6ca
1,586,19,73,1,4,9999,651,c9a8ce1f5cccf9534266c706b538c6ca
1,587,46,82,1,4,9999,754,c9a8ce1f5cccf9534266c706b538c6ca
1,588,46,73,1,4,9999,726,c9a8ce1f5cccf9534266c706b538c6ca
1,589,10,73,1,4,9999,593,c9a8ce1f5cccf9534266c706b538c6ca
1,590,91,46,1,1,9999,1112,c9a8ce1f5cccf9534266c706b538c6ca
1,591,64,10,1,4,9999,3229,c9a8ce1f5cccf9534266c706b538c6ca
1,592,82,19,1,1,9999,4971,c9a8ce1f5cccf9534266c706b538c6ca
1,593,10,37,1,4,9999,636,c9a8ce1f5cccf9534266c706b538c6ca
1,594,46,10,1,4,9999,666,c9a8ce1f5cccf9534266c706b538c6ca
1,595,82,82,1,4,9999,1822,c9a8ce1f5cccf9534266c706b538c6ca
1,596,10,19,1,4,9999,1281,c9a8ce1f5cccf9534266c706b538c6ca
1,597,64,64,1,4,9999,7979,c9a8ce1f5cccf9534266c706b538c6ca
1,598,73,46,1,1,9999,1567,c9a8ce1f5cccf9534266c706b538c6ca
1,599,28,19,1,3,9999,893,c9a8ce1f5cccf9534266c706b538c6ca
1,600,37,73,1,4,9999,605,c9a8ce1f5cccf9534266c706b538c6ca
1,601,19,82,1,4,9999,538,c9a8ce1f5cccf9534266c706b538c6ca
1,602,37,55,1,4,9999,786,c9a8ce1f5cccf9534266c706b538c6ca
1,603,46,64,1,3,9999,575,c9a8ce1f5cccf9534266c706b538c6ca
1,604,28,28,1,4,9999,970,c9a8ce1f5cccf9534266c706b538c6ca
1,605,82,91,1,4,9999,527,c9a8ce1f5cccf9534266c706b538c6ca
1,606,10,28,1,1,9999,673,c9a8ce1f5cccf9534266c706b538c6ca
1,607,19,64,1,4,9999,673,c9a8ce1f5cccf9534266c706b538c6ca
1,608,82,28,1,3,9999,590,c9a8ce1f5cccf9534266c706b538c6ca
1,609,55,91,1,4,9999,366,c9a8ce1f5cccf9534266c706b538c6ca
1,610,73,64,1,4,9999,728,c9a8ce1f5cccf9534266c706b538c6ca
1,611,82,73,1,4,9999,1352,c9a8ce1f5cccf9534266c706b538c6ca
1,612,82,10,1,4,9999,785,c9a8ce1f5cccf9534266c706b538c6ca
1,613,37,19,1,3,9999,1023,c9a8ce1f5cccf9534266c706b538c6ca
1,614,64,10,1,2,9999,1226,c9a8ce1f5cccf9534266c706b538c6ca
1,615,19,19,1,4,9999,786,c9a8ce1f5cccf9534266c706b538c6ca
1,616,55,19,1,4,9999,762,c9a8ce1f5cccf9534266c706b538c6ca
1,617,64,37,1,4,9999,952,c9a8ce1f5cccf9534266c706b538c6ca
1,618,37,91,1,2,9999,1128,c9a8ce1f5cccf9534266c706b538c6ca
1,619,73,64,1,4,9999,1178,c9a8ce1f5cccf9534266c706b538c6ca
1,620,64,46,1,3,9999,1274,c9a8ce1f5cccf9534266c706b538c6ca
1,621,91,46,1,4,9999,865,c9a8ce1f5cccf9534266c706b538c6ca
1,622,46,91,1,4,9999,1068,c9a8ce1f5cccf9534266c706b538c6ca
1,623,91,10,1,1,9999,957,c9a8ce1f5cccf9534266c706b538c6ca
1,624,19,64,1,4,9999,648,c9a8ce1f5cccf9534266c706b538c6ca
1,625,64,73,1,4,9999,844,c9a8ce1f5cccf9534266c706b538c6ca
1,626,55,91,1,4,9999,801,c9a8ce1f5cccf9534266c706b538c6ca
1,627,55,10,1,2,9999,889,c9a8ce1f5cccf9534266c706b538c6ca
1,628,73,91,1,3,9999,582,c9a8ce1f5cccf9534266c706b538c6ca
1,629,10,37,1,3,9999,850,c9a8ce1f5cccf9534266c706b538c6ca
1,630,82,28,1,2,9999,926,c9a8ce1f5cccf9534266c706b538c6ca
1,631,64,91,1,4,9999,1234,c9a8ce1f5cccf9534266c706b538c6ca
1,632,37,91,1,4,9999,2358,c9a8ce1f5cccf9534266c706b538c6ca
1,633,37,82,1,2,9999,527,c9a8ce1f5cccf9534266c706b538c6ca
1,634,10,91,1,4,9999,3768,c9a8ce1f5cccf9534266c706b538c6ca
1,635,82,73,1,2,9999,1035,c9a8ce1f5cccf9534266c706b538c6ca
1,636,64,19,1,4,9999,352,c9a8ce1f5cccf9534266c706b538c6ca
1,637,82,19,1,1,9999,1004,c9a8ce1f5cccf9534266c706b538c6ca
1,638,46,19,1,4,9999,837,c9a8ce1f5cccf9534266c706b538c6ca
1,639,55,46,1,4,9999,869,c9a8ce1f5cccf9534266c706b538c6ca
1,0,91,55,1,3,9999,4364,6c4965b94b21b3df637ec2c327461032
1,1,19,28,1,2,9999,1551,6c4965b94b21b3df637ec2c327461032
1,2,55,64,1,2,9999,938,6c4965b94b21b3df637ec2c327461032
1,3,73,37,1,3,9999,957,6c4965b94b21b3df637ec2c327461032
1,4,82,10,1,4,9999,949,6c4965b94b21b3df637ec2c327461032
1,5,19,82,1,4,9999,1017,6c4965b94b21b3df637ec2c327461032
1,6,10,46,1,2,9999,1530,6c4965b94b21b3df637ec2c327461032
1,7,37,73,1,4,9999,537,6c4965b94b21b3df637ec2c327461032
1,8,10,64,1,4,9999,995,6c4965b94b21b3df637ec2c327461032
1,9,37,64,1,2,9999,1361,6c4965b94b21b3df637ec2c327461032
1,10,64,46,1,2,9999,968,6c4965b94b21b3df637ec2c327461032
1,11,46,10,1,3,9999,1123,6c4965b94b21b3df637ec2c327461032
1,12,46,37,1,3,9999,907,6c4965b94b21b3df637ec2c327461032
1,13,73,64,1,4,9999,1096,6c4965b94b21b3df637ec2c327461032
1,14,46,46,1,2,9999,890,6c4965b94b21b3df637ec2c327461032
1,15,82,91,1,4,9999,1037,6c4965b94b21b3df637ec2c327461032
1,16,73,91,1,4,9999,628,6c4965b94b21b3df637ec2c327461032
1,17,73,19,1,2,9999,1144,6c4965b94b21b3df637ec2c327461032
1,18,82,46,1,3,9999,850,6c4965b94b21b3df637ec2c327461032
1,19,82,19,1,2,9999,1053,6c4965b94b21b3df637ec2c327461032
1,20,28,10,1,4,9999,1809,6c4965b94b21b3df637ec2c327461032
1,21,64,91,1,4,9999,950,6c4965b94b21b3df637ec2c327461032
1,22,82,37,1,3,9999,1011,6c4965b94b21b3df637ec2c327461032
1,23,28,55,1,2,9999,1275,6c4965b94b21b3df637ec2c327461032
1,24,46,82,1,2,9999,1390,6c4965b94b21b3df637ec2c327461032
1,25,10,19,1,4,9999,1635,6c4965b94b21b3df637ec2c327461032
1,26,37,28,1,3,9999,1003,6c4965b94b21b3df637ec2c327461032
1,27,37,10,1,1,9999,1365,6c4965b94b21b3df637ec2c327461032
1,28,46,64,1,3,9999,1428,6c4965b94b21b3df637ec2c327461032
1,29,55,19,1,3,9999,1127,6c4965b94b21b3df637ec2c327461032
1,30,91,73,1,4,9999,1491,6c4965b94b21b3df637ec2c327461032
1,31,37,37,1,2,9999,1390,6c4965b94b21b3df637ec2c327461032
1,32,64,73,1,3,9999,927,6c4965b94b21b3df637ec2c327461032
1,33,82,55,1,3,9999,1443,6c4965b94b21b3df637ec2c327461032
1,34,73,82,1,2,9999,1320,6c4965b94b21b3df637ec2c327461032
1,35,10,28,1,4,9999,1427,6c4965b94b21b3df637ec2c327461032
1,36,82,82,1,4,9999,1117,6c4965b94b21b3df637ec2c327461032
1,37,55,55,1,3,9999,1378,6c4965b94b21b3df637ec2c327461032
1,38,64,10,1,3,9999,1504,6c4965b94b21b3df637ec2c327461032
1,39,37,55,1,3,9999,1191,6c4965b94b21b3df637ec2c327461032
1,40,37,55,1,4,9999,1151,6c4965b94b21b3df637ec2c327461032
1,41,46,55,1,1,9999,1194,6c4965b94b21b3df637ec2c327461032
1,42,82,10,1,3,9999,1276,6c4965b94b21b3df637ec2c327461032
1,43,46,82,1,3,9999,1050,6c4965b94b21b3df637ec2c327461032
1,44,73,19,1,4,9999,1190,6c4965b94b21b3df637ec2c327461032
1,45,19,82,1,4,9999,1667,6c4965b94b21b3df637ec2c327461032
1,46,28,46,1,2,9999,1613,6c4965b94b21b3df637ec2c327461032
1,47,64,46,1,2,9999,846,6c4965b94b21b3df637ec2c327461032
1,48,10,91,1,4,9999,1694,6c4965b94b21b3df637ec2c327461032
1,49,73,37,1,3,9999,761,6c4965b94b21b3df637ec2c327461032
1,50,64,82,1,4,9999,978,6c4965b94b21b3df637ec2c327461032
1,51,28,10,1,1,9999,1346,6c4965b94b21b3df637ec2c327461032
1,52,37,64,1,4,9999,969,6c4965b94b21b3df637ec2c327461032
1,53,19,19,1,2,9999,1319,6c4965b94b21b3df637ec2c327461032
1,54,46,73,1,3,9999,842,6c4965b94b21b3df637ec2c327461032
1,55,46,10,1,3,9999,1322,6c4965b94b21b3df637ec2c327461032
1,56,19,28,1,3,9999,1084,6c4965b94b21b3df637ec2c327461032
1,57,64,82,1,3,9999,1476,6c4965b94b21b3df637ec2c327461032
1,58,19,64,1,2,9999,1296,6c4965b94b21b3df637ec2c327461032
1,59,82,19,1,4,9999,1105,6c4965b94b21b3df637ec2c327461032
1,60,37,37,1,1,9999,1098,6c4965b94b21b3df637ec2c327461032
1,61,73,10,1,4,9999,1481,6c4965b94b21b3df637ec2c327461032
1,62,19,82,1,3,9999,1275,6c4965b94b21b3df637ec2c327461032
1,63,46,37,1,3,9999,1113,6c4965b94b21b3df637ec2c327461032
1,64,10,55,1,2,9999,1426,6c4965b94b21b3df637ec2c327461032
1,65,37,73,1,4,9999,1033,6c4965b94b21b3df637ec2c327461032
1,66,28,28,1,3,9999,971,6c4965b94b21b3df637ec2c327461032
1,67,55,55,1,2,9999,771,6c4965b94b21b3df637ec2c327461032
1,68,82,37,1,3,9999,988,6c4965b94b21b3df637ec2c327461032
1,69,91,55,1,3,9999,718,6c4965b94b21b3df637ec2c327461032
1,70,46,73,1,4,9999,638,6c4965b94b21b3df637ec2c327461032
1,71,64,64,1,2,9999,1123,6c4965b94b21b3df637ec2c327461032
1,72,91,55,1,3,9999,1107,6c4965b94b21b3df637ec2c327461032
1,73,82,46,1,2,9999,955,6c4965b94b21b3df637ec2c327461032
1,74,19,28,1,1,9999,1731,6c4965b94b21b3df637ec2c327461032
1,75,37,64,1,4,9999,914,6c4965b94b21b3df637ec2c327461032
1,76,37,73,1,4,9999,1037,6c4965b94b21b3df637ec2c327461032
1,77,37,28,1,3,9999,1227,6c4965b94b21b3df637ec2c327461032
1,78,73,73,1,3,9999,646,6c4965b94b21b3df637ec2c327461032
1,79,82,73,1,3,9999,829,6c4965b94b21b3df637ec2c327461032
1,80,19,82,1,4,9999,1587,6c4965b94b21b3df637ec2c327461032
1,81,73,37,1,3,9999,921,6c4965b94b21b3df637ec2c327461032
1,82,19,28,1,2,9999,1483,6c4965b94b21b3df637ec2c327461032
1,83,55,91,1,4,9999,1290,6c4965b94b21b3df637ec2c327461032
1,84,55,37,1,2,9999,1286,6c4965b94b21b3df637ec2c327461032
1,85,91,10,1,3,9999,1147,6c4965b94b21b3df637ec2c327461032
1,86,64,82,1,4,9999,759,6c4965b94b21b3df637ec2c327461032
1,87,46,10,1,3,9999,1086,6c4965b94b21b3df637ec2c327461032
1,88,64,37,1,3,9999,769,6c4965b94b21b3df637ec2c327461032
1,89,73,55,1,4,9999,905,6c4965b94b21b3df637ec2c327461032
1,90,64,82,1,4,9999,1141,6c4965b94b21b3df637ec2c327461032
1,91,64,91,1,4,9999,858,6c4965b94b21b3df637ec2c327461032
1,92,91,28,1,2,9999,1722,6c4965b94b21b3df637ec2c327461032
1,93,82,19,1,3,9999,1366,6c4965b94b21b3df637ec2c327461032
1,94,28,73,1,3,9999,1227,6c4965b94b21b3df637ec2c327461032
1,95,10,82,1,4,9999,969,6c4965b94b21b3df637ec2c327461032
1,96,37,28,1,1,9999,1646,6c4965b94b21b3df637ec2c327461032
1,97,91,28,1,4,9999,1461,6c4965b94b21b3df637ec2c327461032
1,98,64,91,1,4,9999,857,6c4965b94b21b3df637ec2c327461032
1,99,55,19,1,3,9999,638,6c4965b94b21b3df637ec2c327461032
1,100,91,73,1,4,9999,880,6c4965b94b21b3df637ec2c327461032
1,101,73,46,1,4,9999,1182,6c4965b94b21b3df637ec2c327461032
1,102,46,46,1,4,9999,765,6c4965b94b21b3df637ec2c327461032
1,103,37,73,1,4,9999,771,6c4965b94b21b3df637ec2c327461032
1,104,19,73,1,4,9999,1240,6c4965b94b21b3df637ec2c327461032
1,105,19,37,1,3,9999,934,6c4965b94b21b3df637ec2c327461032
1,106,46,55,1,4,9999,869,6c4965b94b21b3df637ec2c327461032
1,107,19,46,1,4,9999,1002,6c4965b94b21b3df637ec2c327461032
1,108,19,10,1,3,9999,1127,6c4965b94b21b3df637ec2c327461032
1,109,10,91,1,2,9999,1680,6c4965b94b21b3df637ec2c327461032
1,110,55,10,1,4,9999,1132,6c4965b94b21b3df637ec2c327461032
1,111,37,19,1,3,9999,1248,6c4965b94b21b3df637ec2c327461032
1,112,37,55,1,3,9999,984,6c4965b94b21b3df637ec2c327461032
1,113,46,28,1,3,9999,1212,6c4965b94b21b3df637ec2c327461032
1,114,91,91,1,4,9999,718,6c4965b94b21b3df637ec2c327461032
1,115,91,73,1,3,9999,955,6c4965b94b21b3df637ec2c327461032
1,116,46,46,1,4,9999,1017,6c4965b94b21b3df637ec2c327461032
1,117,10,46,1,4,9999,920,6c4965b94b21b3df637ec2c327461032
1,118,19,64,1,4,9999,900,6c4965b94b21b3df637ec2c327461032
1,119,64,37,1,3,9999,714,6c4965b94b21b3df637ec2c327461032
1,120,37,19,1,3,9999,1541,6c4965b94b21b3df637ec2c327461032
1,121,55,28,1,4,9999,801,6c4965b94b21b3df637ec2c327461032
1,122,64,64,1,4,9999,750,6c4965b94b21b3df637ec2c327461032
1,123,37,10,1,4,9999,1065,6c4965b94b21b3df637ec2c327461032
1,124,28,10,1,4,9999,846,6c4965b94b21b3df637ec2c327461032
1,125,82,37,1,3,9999,1056,6c4965b94b21b3df637ec2c327461032
1,126,10,64,1,3,9999,1486,6c4965b94b21b3df637ec2c327461032
1,127,82,55,1,4,9999,1006,6c4965b94b21b3df637ec2c327461032
1,128,28,64,1,4,9999,790,6c4965b94b21b3df637ec2c327461032
1,129,37,37,1,4,9999,952,6c4965b94b21b3df637ec2c327461032
1,130,91,64,1,4,9999,1231,6c4965b94b21b3df637ec2c327461032
1,131,91,82,1,4,9999,974,6c4965b94b21b3df637ec2c327461032
1,132,10,73,1,4,9999,1157,6c4965b94b21b3df637ec2c327461032
1,133,73,37,1,3,9999,809,6c4965b94b21b3df637ec2c327461032
1,134,46,46,1,3,9999,705,6c4965b94b21b3df637ec2c327461032
1,135,73,46,1,3,9999,1385,6c4965b94b21b3df637ec2c327461032
1,136,10,19,1,2,9999,1294,6c4965b94b21b3df637ec2c327461032
1,137,64,73,1,4,9999,1254,6c4965b94b21b3df637ec2c327461032
1,138,91,46,1,4,9999,719,6c4965b94b21b3df637ec2c327461032
1,139,46,91,1,4,9999,812,6c4965b94b21b3df637ec2c327461032
1,140,64,91,1,3,9999,978,6c4965b94b21b3df637ec2c327461032
1,141,82,73,1,4,9999,912,6c4965b94b21b3df637ec2c327461032
1,142,64,37,1,4,9999,762,6c4965b94b21b3df637ec2c327461032
1,143,46,64,1,4,9999,790,6c4965b94b21b3df637ec2c327461032
1,144,10,37,1,4,9999,1343,6c4965b94b21b3df637ec2c327461032
1,145,46,82,1,3,9999,754,6c4965b94b21b3df637ec2c327461032
1,146,19,10,1,2,9999,1204,6c4965b94b21b3df637ec2c327461032
1,147,19,28,1,3,9999,761,6c4965b94b21b3df637ec2c327461032
1,148,73,82,1,2,9999,1240,6c4965b94b21b3df637ec2c327461032
1,149,19,55,1,3,9999,2294,6c4965b94b21b3df637ec2c327461032
1,150,73,91,1,4,9999,1082,6c4965b94b21b3df637ec2c327461032
1,151,55,19,1,3,9999,1123,6c4965b94b21b3df637ec2c327461032
1,152,73,10,1,3,9999,1290,6c4965b94b21b3df637ec2c327461032
1,153,91,91,1,4,9999,804,6c4965b94b21b3df637ec2c327461032
1,154,64,28,1,2,9999,1605,6c4965b94b21b3df637ec2c327461032
1,155,91,19,1,3,9999,1384,6c4965b94b21b3df637ec2c327461032
1,156,64,55,1,3,9999,1557,6c4965b94b21b3df637ec2c327461032
1,157,19,37,1,3,9999,1056,6c4965b94b21b3df637ec2c327461032
1,158,46,73,1,4,9999,1419,6c4965b94b21b3df637ec2c327461032
1,159,46,37,1,4,9999,720,6c4965b94b21b3df637ec2c327461032
1,160,28,37,1,3,9999,2723,6c4965b94b21b3df637ec2c327461032
1,161,19,46,1,4,9999,849,6c4965b94b21b3df637ec2c327461032
1,162,10,10,1,4,9999,514,6c4965b94b21b3df637ec2c327461032
1,163,55,73,1,3,9999,715,6c4965b94b21b3df637ec2c327461032
1,164,55,46,1,4,9999,563,6c4965b94b21b3df637ec2c327461032
1,165,28,46,1,4,9999,691,6c4965b94b21b3df637ec2c327461032
1,166,73,82,1,4,9999,1166,6c4965b94b21b3df637ec2c327461032
1,167,82,46,1,4,9999,807,6c4965b94b21b3df637ec2c327461032
1,168,73,37,1,3,9999,1043,6c4965b94b21b3df637ec2c327461032
1,169,64,73,1,4,9999,909,6c4965b94b21b3df637ec2c327461032
1,170,91,91,1,4,9999,776,6c4965b94b21b3df637ec2c327461032
1,171,19,55,1,4,9999,499,6c4965b94b21b3df637ec2c327461032
1,172,55,82,1,4,9999,640,6c4965b94b21b3df637ec2c327461032
1,173,82,91,1,4,9999,1008,6c4965b94b21b3df637ec2c327461032
1,174,73,91,1,4,9999,1020,6c4965b94b21b3df637ec2c327461032
1,175,91,28,1,4,9999,1202,6c4965b94b21b3df637ec2c327461032
1,176,64,10,1,4,9999,1539,6c4965b94b21b3df637ec2c327461032
1,177,37,28,1,3,9999,763,6c4965b94b21b3df637ec2c327461032
1,178,37,55,1,4,9999,731,6c4965b94b21b3df637ec2c327461032
1,179,37,37,1,4,9999,668,6c4965b94b21b3df637ec2c327461032
1,180,82,82,1,3,9999,1218,6c4965b94b21b3df637ec2c327461032
1,181,55,64,1,4,9999,785,6c4965b94b21b3df637ec2c327461032
1,182,37,91,1,4,9999,927,6c4965b94b21b3df637ec2c327461032
1,183,82,73,1,4,9999,720,6c4965b94b21b3df637ec2c327461032
1,184,55,37,1,2,9999,1407,6c4965b94b21b3df637ec2c327461032
1,185,19,64,1,3,9999,1804,6c4965b94b21b3df637ec2c327461032
1,186,37,19,1,3,9999,1547,6c4965b94b21b3df637ec2c327461032
1,187,91,55,1,4,9999,1183,6c4965b94b21b3df637ec2c327461032
1,188,91,64,1,4,9999,968,6c4965b94b21b3df637ec2c327461032
1,189,82,91,1,4,9999,879,6c4965b94b21b3df637ec2c327461032
1,190,46,64,1,3,9999,976,6c4965b94b21b3df637ec2c327461032
1,191,55,46,1,3,9999,800,6c4965b94b21b3df637ec2c327461032
1,192,73,37,1,4,9999,748,6c4965b94b21b3df637ec2c327461032
1,193,64,37,1,3,9999,470,6c4965b94b21b3df637ec2c327461032
1,194,55,73,1,4,9999,730,6c4965b94b21b3df637ec2c327461032
1,195,73,73,1,4,9999,857,6c4965b94b21b3df637ec2c327461032
1,196,46,28,1,3,9999,912,6c4965b94b21b3df637ec2c327461032
1,197,37,10,1,3,9999,867,6c4965b94b21b3df637ec2c327461032
1,198,46,82,1,4,9999,1003,6c4965b94b21b3df637ec2c327461032
1,199,73,19,1,3,9999,1234,6c4965b94b21b3df637ec2c327461032
1,200,82,37,1,3,9999,627,6c4965b94b21b3df637ec2c327461032
1,201,28,55,1,4,9999,650,6c4965b94b21b3df637ec2c327461032
1,202,10,19,1,4,9999,1348,6c4965b94b21b3df637ec2c327461032
1,203,64,46,1,4,9999,640,6c4965b94b21b3df637ec2c327461032
1,204,46,64,1,4,9999,622,6c4965b94b21b3df637ec2c327461032
1,205,82,19,1,2,9999,1758,6c4965b94b21b3df637ec2c327461032
1,206,46,91,1,4,9999,1045,6c4965b94b21b3df637ec2c327461032
1,207,37,64,1,4,9999,509,6c4965b94b21b3df637ec2c327461032
1,208,82,82,1,4,9999,587,6c4965b94b21b3df637ec2c327461032
1,209,91,28,1,3,9999,1054,6c4965b94b21b3df637ec2c327461032
1,210,10,46,1,4,9999,845,6c4965b94b21b3df637ec2c327461032
1,211,91,28,1,4,9999,772,6c4965b94b21b3df637ec2c327461032
1,212,10,10,1,4,9999,533,6c4965b94b21b3df637ec2c327461032
1,213,64,19,1,3,9999,1577,6c4965b94b21b3df637ec2c327461032
1,214,91,46,1,3,9999,1509,6c4965b94b21b3df637ec2c327461032
1,215,19,46,1,4,9999,1131,6c4965b94b21b3df637ec2c327461032
1,216,28,28,1,4,9999,1192,6c4965b94b21b3df637ec2c327461032
1,217,73,10,1,4,9999,1306,6c4965b94b21b3df637ec2c327461032
1,218,82,46,1,3,9999,1072,6c4965b94b21b3df637ec2c327461032
1,219,64,64,1,4,9999,644,6c4965b94b21b3df637ec2c327461032
1,220,46,73,1,4,9999,801,6c4965b94b21b3df637ec2c327461032
1,221,37,10,1,4,9999,854,6c4965b94b21b3df637ec2c327461032
1,222,91,10,1,4,9999,648,6c4965b94b21b3df637ec2c327461032
1,223,10,64,1,4,9999,1031,6c4965b94b21b3df637ec2c327461032
1,224,28,73,1,4,9999,824,6c4965b94b21b3df637ec2c327461032
1,225,10,82,1,4,9999,817,6c4965b94b21b3df637ec2c327461032
1,226,82,73,1,4,9999,682,6c4965b94b21b3df637ec2c327461032
1,227,82,37,1,4,9999,580,6c4965b94b21b3df637ec2c327461032
1,228,19,55,1,4,9999,881,6c4965b94b21b3df637ec2c327461032
1,229,28,10,1,4,9999,1606,6c4965b94b21b3df637ec2c327461032
1,230,82,10,1,3,9999,747,6c4965b94b21b3df637ec2c327461032
1,231,10,91,1,4,9999,758,6c4965b94b21b3df637ec2c327461032
1,232,91,10,1,4,9999,858,6c4965b94b21b3df637ec2c327461032
1,233,55,82,1,3,9999,927,6c4965b94b21b3df637ec2c327461032
1,234,73,91,1,4,9999,680,6c4965b94b21b3df637ec2c327461032
1,235,19,82,1,4,9999,883,6c4965b94b21b3df637ec2c327461032
1,236,10,37,1,4,9999,860,6c4965b94b21b3df637ec2c327461032
1,237,55,37,1,4,9999,1039,6c4965b94b21b3df637ec2c327461032
1,238,37,64,1,4,9999,704,6c4965b94b21b3df637ec2c327461032
1,239,82,10,1,4,9999,932,6c4965b94b21b3df637ec2c327461032
1,240,46,37,1,3,9999,773,6c4965b94b21b3df637ec2c327461032
1,241,28,55,1,4,9999,763,6c4965b94b21b3df637ec2c327461032
1,242,73,64,1,4,9999,813,6c4965b94b21b3df637ec2c327461032
1,243,91,19,1,3,9999,1078,6c4965b94b21b3df637ec2c327461032
1,244,91,55,1,4,9999,1175,6c4965b94b21b3df637ec2c327461032
1,245,46,19,1,4,9999,767,6c4965b94b21b3df637ec2c327461032
1,246,55,55,1,4,9999,1351,6c4965b94b21b3df637ec2c327461032
1,247,10,73,1,4,9999,1139,6c4965b94b21b3df637ec2c327461032
1,248,64,82,1,3,9999,1661,6c4965b94b21b3df637ec2c327461032
1,249,28,19,1,4,9999,1260,6c4965b94b21b3df637ec2c327461032
1,250,55,55,1,4,9999,775,6c4965b94b21b3df637ec2c327461032
1,251,55,10,1,3,9999,1329,6c4965b94b21b3df637ec2c327461032
1,252,10,91,1,4,9999,796,6c4965b94b21b3df637ec2c327461032
1,253,73,55,1,3,9999,1515,6c4965b94b21b3df637ec2c327461032
1,254,28,10,1,3,9999,1337,6c4965b94b21b3df637ec2c327461032
1,255,82,10,1,3,9999,866,6c4965b94b21b3df637ec2c327461032
1,256,10,55,1,4,9999,896,6c4965b94b21b3df637ec2c327461032
1,257,64,55,1,4,9999,890,6c4965b94b21b3df637ec2c327461032
1,258,91,28,1,4,9999,882,6c4965b94b21b3df637ec2c327461032
1,259,91,10,1,3,9999,799,6c4965b94b21b3df637ec2c327461032
1,260,28,19,1,4,9999,882,6c4965b94b21b3df637ec2c327461032
1,261,55,64,1,4,9999,748,6c4965b94b21b3df637ec2c327461032
1,262,10,82,1,4,9999,848,6c4965b94b21b3df637ec2c327461032
1,263,46,91,1,4,9999,687,6c4965b94b21b3df637ec2c327461032
1,264,10,91,1,4,9999,728,6c4965b94b21b3df637ec2c327461032
1,265,46,37,1,4,9999,1597,6c4965b94b21b3df637ec2c327461032
1,266,19,10,1,3,9999,1214,6c4965b94b21b3df637ec2c327461032
1,267,19,91,1,3,9999,741,6c4965b94b21b3df637ec2c327461032
1,268,46,19,1,3,9999,1105,6c4965b94b21b3df637ec2c327461032
1,269,46,64,1,4,9999,580,6c4965b94b21b3df637ec2c327461032
1,270,46,82,1,4,9999,507,6c4965b94b21b3df637ec2c327461032
1,271,37,82,1,4,9999,786,6c4965b94b21b3df637ec2c327461032
1,272,82,46,1,3,9999,1086,6c4965b94b21b3df637ec2c327461032
1,273,37,46,1,4,9999,1115,6c4965b94b21b3df637ec2c327461032
1,274,91,73,1,4,9999,471,6c4965b94b21b3df637ec2c327461032
1,275,28,37,1,4,9999,838,6c4965b94b21b3df637ec2c327461032
1,276,10,19,1,4,9999,1117,6c4965b94b21b3df637ec2c327461032
1,277,82,64,1,4,9999,1598,6c4965b94b21b3df637ec2c327461032
1,278,46,10,1,3,9999,734,6c4965b94b21b3df637ec2c327461032
1,279,37,64,1,4,9999,1202,6c4965b94b21b3df637ec2c327461032
1,280,64,19,1,4,9999,775,6c4965b94b21b3df637ec2c327461032
1,281,19,91,1,4,9999,666,6c4965b94b21b3df637ec2c327461032
1,282,55,73,1,3,9999,977,6c4965b94b21b3df637ec2c327461032
1,283,37,19,1,3,9999,736,6c4965b94b21b3df637ec2c327461032
1,284,55,10,1,4,9999,902,6c4965b94b21b3df637ec2c327461032
1,285,19,73,1,4,9999,1162,6c4965b94b21b3df637ec2c327461032
1,286,82,46,1,4,9999,1227,6c4965b94b21b3df637ec2c327461032
1,287,37,28,1,4,9999,690,6c4965b94b21b3df637ec2c327461032
1,288,19,55,1,4,9999,626,6c4965b94b21b3df637ec2c327461032
1,289,28,37,1,4,9999,832,6c4965b94b21b3df637ec2c327461032
1,290,64,73,1,4,9999,587,6c4965b94b21b3df637ec2c327461032
1,291,82,64,1,4,9999,652,6c4965b94b21b3df637ec2c327461032
1,292,10,73,1,4,9999,1092,6c4965b94b21b3df637ec2c327461032
1,293,55,73,1,4,9999,712,6c4965b94b21b3df637ec2c327461032
1,294,91,46,1,4,9999,782,6c4965b94b21b3df637ec2c327461032
1,295,73,64,1,4,9999,600,6c4965b94b21b3df637ec2c327461032
1,296,55,82,1,4,9999,698,6c4965b94b21b3df637ec2c327461032
1,297,55,46,1,4,9999,912,6c4965b94b21b3df637ec2c327461032
1,298,10,10,1,4,9999,1180,6c4965b94b21b3df637ec2c327461032
1,299,55,91,1,4,9999,784,6c4965b94b21b3df637ec2c327461032
1,300,37,91,1,3,9999,1116,6c4965b94b21b3df637ec2c327461032
1,301,55,37,1,2,9999,1401,6c4965b94b21b3df637ec2c327461032
1,302,19,28,1,4,9999,782,6c4965b94b21b3df637ec2c327461032
1,303,10,28,1,4,9999,973,6c4965b94b21b3df637ec2c327461032
1,304,64,28,1,4,9999,550,6c4965b94b21b3df637ec2c327461032
1,305,28,19,1,4,9999,583,6c4965b94b21b3df637ec2c327461032
1,306,82,64,1,4,9999,1004,6c4965b94b21b3df637ec2c327461032
1,307,64,73,1,4,9999,705,6c4965b94b21b3df637ec2c327461032
1,308,46,28,1,4,9999,722,6c4965b94b21b3df637ec2c327461032
1,309,82,19,1,4,9999,749,6c4965b94b21b3df637ec2c327461032
1,310,37,64,1,4,9999,693,6c4965b94b21b3df637ec2c327461032
1,311,28,37,1,4,9999,489,6c4965b94b21b3df637ec2c327461032
1,312,73,46,1,3,9999,1450,6c4965b94b21b3df637ec2c327461032
1,313,55,46,1,4,9999,504,6c4965b94b21b3df637ec2c327461032
1,314,91,46,1,4,9999,720,6c4965b94b21b3df637ec2c327461032
1,315,10,37,1,4,9999,465,6c4965b94b21b3df637ec2c327461032
1,316,64,37,1,4,9999,1024,6c4965b94b21b3df637ec2c327461032
1,317,10,19,1,4,9999,760,6c4965b94b21b3df637ec2c327461032
1,318,82,91,1,4,9999,641,6c4965b94b21b3df637ec2c327461032
1,319,46,73,1,4,9999,512,6c4965b94b21b3df637ec2c327461032
1,320,82,28,1,4,9999,1753,6c4965b94b21b3df637ec2c327461032
1,321,46,46,1,4,9999,781,6c4965b94b21b3df637ec2c327461032
1,322,55,64,1,4,9999,525,6c4965b94b21b3df637ec2c327461032
1,323,46,10,1,4,9999,655,6c4965b94b21b3df637ec2c327461032
1,324,82,73,1,4,9999,631,6c4965b94b21b3df637ec2c327461032
1,325,37,82,1,4,9999,639,6c4965b94b21b3df637ec2c327461032
1,326,19,46,1,4,9999,701,6c4965b94b21b3df637ec2c327461032
1,327,46,91,1,4,9999,470,6c4965b94b21b3df637ec2c327461032
1,328,10,37,1,4,9999,472,6c4965b94b21b3df637ec2c327461032
1,329,28,55,1,3,9999,568,6c4965b94b21b3df637ec2c327461032
1,330,28,46,1,4,9999,564,6c4965b94b21b3df637ec2c327461032
1,331,91,64,1,4,9999,1432,6c4965b94b21b3df637ec2c327461032
1,332,19,37,1,4,9999,700,6c4965b94b21b3df637ec2c327461032
1,333,37,91,1,4,9999,692,6c4965b94b21b3df637ec2c327461032
1,334,91,55,1,4,9999,565,6c4965b94b21b3df637ec2c327461032
1,335,28,82,1,4,9999,853,6c4965b94b21b3df637ec2c327461032
1,336,37,46,1,4,9999,703,6c4965b94b21b3df637ec2c327461032
1,337,37,73,1,4,9999,601,6c4965b94b21b3df637ec2c327461032
1,338,64,28,1,4,9999,475,6c4965b94b21b3df637ec2c327461032
1,339,73,46,1,3,9999,1014,6c4965b94b21b3df637ec2c327461032
1,340,37,28,1,4,9999,720,6c4965b94b21b3df637ec2c327461032
1,341,28,10,1,3,9999,1058,6c4965b94b21b3df637ec2c327461032
1,342,19,46,1,4,9999,1482,6c4965b94b21b3df637ec2c327461032
1,343,55,64,1,4,9999,746,6c4965b94b21b3df637ec2c327461032
1,344,28,73,1,4,9999,942,6c4965b94b21b3df637ec2c327461032
1,345,28,64,1,4,9999,805,6c4965b94b21b3df637ec2c327461032
1,346,28,82,1,4,9999,452,6c4965b94b21b3df637ec2c327461032
1,347,55,82,1,4,9999,1421,6c4965b94b21b3df637ec2c327461032
1,348,37,55,1,3,9999,1145,6c4965b94b21b3df637ec2c327461032
1,349,82,37,1,4,9999,2110,6c4965b94b21b3df637ec2c327461032
1,350,10,91,1,4,9999,983,6c4965b94b21b3df637ec2c327461032
1,351,73,19,1,4,9999,1831,6c4965b94b21b3df637ec2c327461032
1,352,91,82,1,4,9999,1556,6c4965b94b21b3df637ec2c327461032
1,353,28,73,1,4,9999,988,6c4965b94b21b3df637ec2c327461032
1,354,55,10,1,3,9999,1334,6c4965b94b21b3df637ec2c327461032
1,355,19,10,1,3,9999,1397,6c4965b94b21b3df637ec2c327461032
1,356,28,55,1,4,9999,831,6c4965b94b21b3df637ec2c327461032
1,357,64,46,1,4,9999,684,6c4965b94b21b3df637ec2c327461032
1,358,82,28,1,4,9999,1096,6c4965b94b21b3df637ec2c327461032
1,359,55,55,1,4,9999,567,6c4965b94b21b3df637ec2c327461032
1,360,46,37,1,4,9999,699,6c4965b94b21b3df637ec2c327461032
1,361,10,73,1,4,9999,544,6c4965b94b21b3df637ec2c327461032
1,362,19,73,1,4,9999,213,6c4965b94b21b3df637ec2c327461032
1,363,91,37,1,4,9999,863,6c4965b94b21b3df637ec2c327461032
1,364,82,55,1,3,9999,1925,6c4965b94b21b3df637ec2c327461032
1,365,64,46,1,4,9999,755,6c4965b94b21b3df637ec2c327461032
1,366,28,82,1,4,9999,771,6c4965b94b21b3df637ec2c327461032
1,367,10,73,1,4,9999,690,6c4965b94b21b3df637ec2c327461032
1,368,73,73,1,3,9999,1430,6c4965b94b21b3df637ec2c327461032
1,369,28,46,1,4,9999,634,6c4965b94b21b3df637ec2c327461032
1,370,82,82,1,4,9999,751,6c4965b94b21b3df637ec2c327461032
1,371,28,37,1,4,9999,1009,6c4965b94b21b3df637ec2c327461032
1,372,64,19,1,4,9999,604,6c4965b94b21b3df637ec2c327461032
1,373,28,91,1,4,9999,870,6c4965b94b21b3df637ec2c327461032
1,374,91,37,1,3,9999,1273,6c4965b94b21b3df637ec2c327461032
1,375,91,73,1,4,9999,805,6c4965b94b21b3df637ec2c327461032
1,376,37,82,1,4,9999,834,6c4965b94b21b3df637ec2c327461032
1,377,19,73,1,4,9999,482,6c4965b94b21b3df637ec2c327461032
1,378,73,28,1,4,9999,530,6c4965b94b21b3df637ec2c327461032
1,379,82,91,1,4,9999,880,6c4965b94b21b3df637ec2c327461032
1,380,73,64,1,3,9999,1126,6c4965b94b21b3df637ec2c327461032
1,381,10,64,1,4,9999,972,6c4965b94b21b3df637ec2c327461032
1,382,82,28,1,4,9999,1534,6c4965b94b21b3df637ec2c327461032
1,383,73,91,1,4,9999,1617,6c4965b94b21b3df637ec2c327461032
1,384,55,19,1,3,9999,1608,6c4965b94b21b3df637ec2c327461032
1,385,10,10,1,4,9999,1270,6c4965b94b21b3df637ec2c327461032
1,386,55,73,1,4,9999,1191,6c4965b94b21b3df637ec2c327461032
1,387,91,82,1,4,9999,1075,6c4965b94b21b3df637ec2c327461032
1,388,10,46,1,3,9999,1360,6c4965b94b21b3df637ec2c327461032
1,389,82,73,1,4,9999,921,6c4965b94b21b3df637ec2c327461032
1,390,91,10,1,4,9999,994,6c4965b94b21b3df637ec2c327461032
1,391,46,19,1,4,9999,1806,6c4965b94b21b3df637ec2c327461032
1,392,46,10,1,3,9999,1196,6c4965b94b21b3df637ec2c327461032
1,393,82,37,1,3,9999,1112,6c4965b94b21b3df637ec2c327461032
1,394,19,91,1,4,9999,1359,6c4965b94b21b3df637ec2c327461032
1,395,19,73,1,3,9999,975,6c4965b94b21b3df637ec2c327461032
1,396,46,91,1,4,9999,625,6c4965b94b21b3df637ec2c327461032
1,397,10,64,1,4,9999,638,6c4965b94b21b3df637ec2c327461032
1,398,82,64,1,4,9999,719,6c4965b94b21b3df637ec2c327461032
1,399,91,19,1,4,9999,561,6c4965b94b21b3df637ec2c327461032
1,400,10,73,1,4,9999,819,6c4965b94b21b3df637ec2c327461032
1,401,19,91,1,4,9999,752,6c4965b94b21b3df637ec2c327461032
1,402,64,55,1,3,9999,1354,6c4965b94b21b3df637ec2c327461032
1,403,82,55,1,4,9999,832,6c4965b94b21b3df637ec2c327461032
1,404,46,55,1,3,9999,1833,6c4965b94b21b3df637ec2c327461032
1,405,46,28,1,4,9999,751,6c4965b94b21b3df637ec2c327461032
1,406,91,10,1,4,9999,973,6c4965b94b21b3df637ec2c327461032
1,407,64,10,1,4,9999,753,6c4965b94b21b3df637ec2c327461032
1,408,37,19,1,3,9999,1724,6c4965b94b21b3df637ec2c327461032
1,409,73,46,1,3,9999,890,6c4965b94b21b3df637ec2c327461032
1,410,64,28,1,3,9999,796,6c4965b94b21b3df637ec2c327461032
1,411,37,46,1,3,9999,1359,6c4965b94b21b3df637ec2c327461032
1,412,28,91,1,4,9999,758,6c4965b94b21b3df637ec2c327461032
1,413,46,46,1,4,9999,927,6c4965b94b21b3df637ec2c327461032
1,414,28,73,1,4,9999,1090,6c4965b94b21b3df637ec2c327461032
1,415,64,10,1,4,9999,937,6c4965b94b21b3df637ec2c327461032
1,416,64,10,1,4,9999,2494,6c4965b94b21b3df637ec2c327461032
1,417,91,46,1,4,9999,885,6c4965b94b21b3df637ec2c327461032
1,418,28,82,1,4,9999,809,6c4965b94b21b3df637ec2c327461032
1,419,73,28,1,4,9999,2145,6c4965b94b21b3df637ec2c327461032
1,420,55,37,1,4,9999,1102,6c4965b94b21b3df637ec2c327461032
1,421,73,73,1,4,9999,807,6c4965b94b21b3df637ec2c327461032
1,422,37,37,1,4,9999,854,6c4965b94b21b3df637ec2c327461032
1,423,91,73,1,4,9999,1524,6c4965b94b21b3df637ec2c327461032
1,424,28,91,1,4,9999,2039,6c4965b94b21b3df637ec2c327461032
1,425,64,55,1,4,9999,1051,6c4965b94b21b3df637ec2c327461032
1,426,28,73,1,4,9999,677,6c4965b94b21b3df637ec2c327461032
1,427,91,19,1,4,9999,2930,6c4965b94b21b3df637ec2c327461032
1,428,37,46,1,4,9999,835,6c4965b94b21b3df637ec2c327461032
1,429,55,10,1,4,9999,2003,6c4965b94b21b3df637ec2c327461032
1,430,73,55,1,3,9999,1348,6c4965b94b21b3df637ec2c327461032
1,431,37,28,1,4,9999,1100,6c4965b94b21b3df637ec2c327461032
1,432,46,55,1,4,9999,1292,6c4965b94b21b3df637ec2c327461032
1,433,55,28,1,4,9999,1841,6c4965b94b21b3df637ec2c327461032
1,434,82,64,1,3,9999,1726,6c4965b94b21b3df637ec2c327461032
1,435,19,46,1,4,9999,1983,6c4965b94b21b3df637ec2c327461032
1,436,64,37,1,4,9999,1158,6c4965b94b21b3df637ec2c327461032
1,437,64,19,1,4,9999,1361,6c4965b94b21b3df637ec2c327461032
1,438,64,73,1,4,9999,1209,6c4965b94b21b3df637ec2c327461032
1,439,37,10,1,4,9999,788,6c4965b94b21b3df637ec2c327461032
1,440,28,28,1,4,9999,712,6c4965b94b21b3df637ec2c327461032
1,441,82,19,1,4,9999,1024,6c4965b94b21b3df637ec2c327461032
1,442,64,28,1,3,9999,833,6c4965b94b21b3df637ec2c327461032
1,443,64,46,1,4,9999,752,6c4965b94b21b3df637ec2c327461032
1,444,28,46,1,3,9999,774,6c4965b94b21b3df637ec2c327461032
1,445,19,55,1,3,9999,1621,6c4965b94b21b3df637ec2c327461032
1,446,91,37,1,4,9999,1358,6c4965b94b21b3df637ec2c327461032
1,447,55,19,1,3,9999,1316,6c4965b94b21b3df637ec2c327461032
1,448,91,82,1,4,9999,913,6c4965b94b21b3df637ec2c327461032
1,449,10,19,1,4,9999,1144,6c4965b94b21b3df637ec2c327461032
1,450,46,82,1,4,9999,809,6c4965b94b21b3df637ec2c327461032
1,451,73,10,1,4,9999,1904,6c4965b94b21b3df637ec2c327461032
1,452,37,46,1,4,9999,2174,6c4965b94b21b3df637ec2c327461032
1,453,64,64,1,3,9999,1077,6c4965b94b21b3df637ec2c327461032
1,454,10,55,1,4,9999,1029,6c4965b94b21b3df637ec2c327461032
1,455,46,28,1,4,9999,2023,6c4965b94b21b3df637ec2c327461032
1,456,37,82,1,4,9999,1082,6c4965b94b21b3df637ec2c327461032
1,457,28,10,1,4,9999,2660,6c4965b94b21b3df637ec2c327461032
1,458,55,46,1,3,9999,1790,6c4965b94b21b3df637ec2c327461032
1,459,82,46,1,4,9999,1741,6c4965b94b21b3df637ec2c327461032
1,460,10,28,1,4,9999,1747,6c4965b94b21b3df637ec2c327461032
1,461,73,73,1,4,9999,1058,6c4965b94b21b3df637ec2c327461032
1,462,19,28,1,4,9999,1248,6c4965b94b21b3df637ec2c327461032
1,463,82,10,1,4,9999,2510,6c4965b94b21b3df637ec2c327461032
1,464,37,37,1,4,9999,3886,6c4965b94b21b3df637ec2c327461032
1,465,73,19,1,4,9999,1208,6c4965b94b21b3df637ec2c327461032
1,466,73,64,1,4,9999,4526,6c4965b94b21b3df637ec2c327461032
1,467,28,82,1,4,9999,656,6c4965b94b21b3df637ec2c327461032
1,468,82,19,1,4,9999,690,6c4965b94b21b3df637ec2c327461032
1,469,19,10,1,3,9999,953,6c4965b94b21b3df637ec2c327461032
1,470,19,19,1,4,9999,1453,6c4965b94b21b3df637ec2c327461032
1,471,55,91,1,4,9999,647,6c4965b94b21b3df637ec2c327461032
1,472,82,28,1,4,9999,1684,6c4965b94b21b3df637ec2c327461032
1,473,19,82,1,4,9999,2570,6c4965b94b21b3df637ec2c327461032
1,474,10,37,1,4,9999,1372,6c4965b94b21b3df637ec2c327461032
1,475,64,19,1,4,9999,1148,6c4965b94b21b3df637ec2c327461032
1,476,73,37,1,4,9999,2516,6c4965b94b21b3df637ec2c327461032
1,477,64,55,1,4,9999,1205,6c4965b94b21b3df637ec2c327461032
1,478,37,55,1,4,9999,1102,6c4965b94b21b3df637ec2c327461032
1,479,10,10,1,4,9999,2103,6c4965b94b21b3df637ec2c327461032
1,480,28,64,1,4,9999,1724,6c4965b94b21b3df637ec2c327461032
1,481,28,64,1,4,9999,1211,6c4965b94b21b3df637ec2c327461032
1,482,28,91,1,4,9999,1099,6c4965b94b21b3df637ec2c327461032
1,483,73,19,1,3,9999,1400,6c4965b94b21b3df637ec2c327461032
1,484,73,82,1,4,9999,1205,6c4965b94b21b3df637ec2c327461032
1,485,64,55,1,4,9999,1749,6c4965b94b21b3df637ec2c327461032
1,486,28,82,1,4,9999,1018,6c4965b94b21b3df637ec2c327461032
1,487,46,55,1,4,9999,1165,6c4965b94b21b3df637ec2c327461032
1,488,10,55,1,4,9999,947,6c4965b94b21b3df637ec2c327461032
1,489,19,19,1,4,9999,2257,6c4965b94b21b3df637ec2c327461032
1,490,91,19,1,4,9999,827,6c4965b94b21b3df637ec2c327461032
1,491,73,82,1,4,9999,886,6c4965b94b21b3df637ec2c327461032
1,492,73,19,1,3,9999,1378,6c4965b94b21b3df637ec2c327461032
1,493,19,64,1,4,9999,1620,6c4965b94b21b3df637ec2c327461032
1,494,55,64,1,4,9999,557,6c4965b94b21b3df637ec2c327461032
1,495,55,73,1,4,9999,3162,6c4965b94b21b3df637ec2c327461032
1,496,73,28,1,3,9999,1287,6c4965b94b21b3df637ec2c327461032
1,497,37,19,1,4,9999,1131,6c4965b94b21b3df637ec2c327461032
1,498,64,91,1,4,9999,671,6c4965b94b21b3df637ec2c327461032
1,499,73,28,1,4,9999,757,6c4965b94b21b3df637ec2c327461032
1,500,37,37,1,4,9999,2377,6c4965b94b21b3df637ec2c327461032
1,501,91,64,1,4,9999,1458,6c4965b94b21b3df637ec2c327461032
1,502,28,19,1,4,9999,1404,6c4965b94b21b3df637ec2c327461032
1,503,37,46,1,3,9999,1172,6c4965b94b21b3df637ec2c327461032
1,504,73,28,1,4,9999,1497,6c4965b94b21b3df637ec2c327461032
1,505,37,82,1,4,9999,2166,6c4965b94b21b3df637ec2c327461032
1,506,55,82,1,4,9999,2066,6c4965b94b21b3df637ec2c327461032
1,507,10,55,1,3,9999,1555,6c4965b94b21b3df637ec2c327461032
1,508,28,28,1,4,9999,1877,6c4965b94b21b3df637ec2c327461032
1,509,64,73,1,4,9999,654,6c4965b94b21b3df637ec2c327461032
1,510,28,19,1,4,9999,1980,6c4965b94b21b3df637ec2c327461032
1,511,10,28,1,4,9999,990,6c4965b94b21b3df637ec2c327461032
1,512,55,28,1,4,9999,631,6c4965b94b21b3df637ec2c327461032
1,513,91,82,1,4,9999,655,6c4965b94b21b3df637ec2c327461032
1,514,19,37,1,3,9999,650,6c4965b94b21b3df637ec2c327461032
1,515,64,10,1,3,9999,788,6c4965b94b21b3df637ec2c327461032
1,516,19,55,1,4,9999,682,6c4965b94b21b3df637ec2c327461032
1,517,73,55,1,4,9999,685,6c4965b94b21b3df637ec2c327461032
1,518,46,64,1,4,9999,1815,6c4965b94b21b3df637ec2c327461032
1,519,28,55,1,4,9999,3238,6c4965b94b21b3df637ec2c327461032
1,520,46,82,1,4,9999,360,6c4965b94b21b3df637ec2c327461032
1,521,46,46,1,4,9999,2411,6c4965b94b21b3df637ec2c327461032
1,522,55,82,1,4,9999,1162,6c4965b94b21b3df637ec2c327461032
1,523,64,28,1,3,9999,1147,6c4965b94b21b3df637ec2c327461032
1,524,91,64,1,4,9999,876,6c4965b94b21b3df637ec2c327461032
1,525,37,10,1,4,9999,738,6c4965b94b21b3df637ec2c327461032
1,526,82,64,1,4,9999,823,6c4965b94b21b3df637ec2c327461032
1,527,73,64,1,4,9999,600,6c4965b94b21b3df637ec2c327461032
1,528,91,37,1,4,9999,722,6c4965b94b21b3df637ec2c327461032
1,529,55,91,1,4,9999,721,6c4965b94b21b3df637ec2c327461032
1,530,46,73,1,3,9999,1137,6c4965b94b21b3df637ec2c327461032
1,531,91,73,1,4,9999,798,6c4965b94b21b3df637ec2c327461032
1,532,55,28,1,4,9999,476,6c4965b94b21b3df637ec2c327461032
1,533,73,28,1,4,9999,1039,6c4965b94b21b3df637ec2c327461032
1,534,91,19,1,4,9999,498,6c4965b94b21b3df637ec2c327461032
1,535,82,55,1,4,9999,777,6c4965b94b21b3df637ec2c327461032
1,536,46,10,1,3,9999,1410,6c4965b94b21b3df637ec2c327461032
1,537,64,91,1,4,9999,682,6c4965b94b21b3df637ec2c327461032
1,538,82,91,1,4,9999,841,6c4965b94b21b3df637ec2c327461032
1,539,73,82,1,4,9999,596,6c4965b94b21b3df637ec2c327461032
1,540,91,64,1,4,9999,746,6c4965b94b21b3df637ec2c327461032
1,541,37,73,1,4,9999,650,6c4965b94b21b3df637ec2c327461032
1,542,37,73,1,4,9999,590,6c4965b94b21b3df637ec2c327461032
1,543,10,46,1,4,9999,1097,6c4965b94b21b3df637ec2c327461032
1,544,28,64,1,4,9999,877,6c4965b94b21b3df637ec2c327461032
1,545,82,55,1,4,9999,1071,6c4965b94b21b3df637ec2c327461032
1,546,19,37,1,3,9999,1172,6c4965b94b21b3df637ec2c327461032
1,547,19,37,1,3,9999,1618,6c4965b94b21b3df637ec2c327461032
1,548,91,82,1,4,9999,846,6c4965b94b21b3df637ec2c327461032
1,549,55,91,1,4,9999,678,6c4965b94b21b3df637ec2c327461032
1,550,91,37,1,3,9999,981,6c4965b94b21b3df637ec2c327461032
1,551,10,46,1,4,9999,884,6c4965b94b21b3df637ec2c327461032
1,552,46,64,1,4,9999,673,6c4965b94b21b3df637ec2c327461032
1,553,55,91,1,4,9999,657,6c4965b94b21b3df637ec2c327461032
1,554,91,46,1,3,9999,971,6c4965b94b21b3df637ec2c327461032
1,555,10,28,1,4,9999,868,6c4965b94b21b3df637ec2c327461032
1,556,46,37,1,4,9999,604,6c4965b94b21b3df637ec2c327461032
1,557,46,55,1,4,9999,1213,6c4965b94b21b3df637ec2c327461032
1,558,10,64,1,4,9999,903,6c4965b94b21b3df637ec2c327461032
1,559,82,10,1,4,9999,772,6c4965b94b21b3df637ec2c327461032
1,560,19,10,1,4,9999,907,6c4965b94b21b3df637ec2c327461032
1,561,91,91,1,4,9999,494,6c4965b94b21b3df637ec2c327461032
1,562,28,28,1,3,9999,2126,6c4965b94b21b3df637ec2c327461032
1,563,37,10,1,4,9999,2317,6c4965b94b21b3df637ec2c327461032
1,564,73,82,1,4,9999,596,6c4965b94b21b3df637ec2c327461032
1,565,55,55,1,4,9999,560,6c4965b94b21b3df637ec2c327461032
1,566,64,19,1,4,9999,500,6c4965b94b21b3df637ec2c327461032
1,567,37,55,1,4,9999,1978,6c4965b94b21b3df637ec2c327461032
1,568,10,55,1,4,9999,1620,6c4965b94b21b3df637ec2c327461032
1,569,28,46,1,4,9999,1761,6c4965b94b21b3df637ec2c327461032
1,570,46,91,1,4,9999,3173,6c4965b94b21b3df637ec2c327461032
1,571,37,91,1,4,9999,696,6c4965b94b21b3df637ec2c327461032
1,572,82,28,1,4,9999,1997,6c4965b94b21b3df637ec2c327461032
1,573,55,19,1,4,9999,1153,6c4965b94b21b3df637ec2c327461032
1,574,64,10,1,4,9999,867,6c4965b94b21b3df637ec2c327461032
1,575,55,19,1,4,9999,871,6c4965b94b21b3df637ec2c327461032
1,576,91,37,1,4,9999,2143,6c4965b94b21b3df637ec2c327461032
1,577,55,28,1,4,9999,947,6c4965b94b21b3df637ec2c327461032
1,578,19,19,1,4,9999,1554,6c4965b94b21b3df637ec2c327461032
1,579,10,82,1,4,9999,1966,6c4965b94b21b3df637ec2c327461032
1,580,10,10,1,4,9999,700,6c4965b94b21b3df637ec2c327461032
1,581,28,55,1,4,9999,1904,6c4965b94b21b3df637ec2c327461032
1,582,55,10,1,4,9999,1901,6c4965b94b21b3df637ec2c327461032
1,583,10,28,1,4,9999,1165,6c4965b94b21b3df637ec2c327461032
1,584,73,73,1,4,9999,2111,6c4965b94b21b3df637ec2c327461032
1,585,28,19,1,4,9999,2305,6c4965b94b21b3df637ec2c327461032
1,586,64,64,1,4,9999,623,6c4965b94b21b3df637ec2c327461032
1,587,73,10,1,4,9999,1528,6c4965b94b21b3df637ec2c327461032
1,588,19,64,1,4,9999,2336,6c4965b94b21b3df637ec2c327461032
1,589,73,91,1,4,9999,1481,6c4965b94b21b3df637ec2c327461032
1,590,19,82,1,4,9999,2498,6c4965b94b21b3df637ec2c327461032
1,591,10,46,1,4,9999,958,6c4965b94b21b3df637ec2c327461032
1,592,28,64,1,4,9999,1398,6c4965b94b21b3df637ec2c327461032
1,593,10,82,1,4,9999,937,6c4965b94b21b3df637ec2c327461032
1,594,10,19,1,3,9999,1522,6c4965b94b21b3df637ec2c327461032
1,595,73,46,1,4,9999,1287,6c4965b94b21b3df637ec2c327461032
1,596,55,37,1,2,9999,2087,6c4965b94b21b3df637ec2c327461032
1,597,19,73,1,4,9999,851,6c4965b94b21b3df637ec2c327461032
1,598,19,64,1,4,9999,825,6c4965b94b21b3df637ec2c327461032
1,599,10,82,1,4,9999,871,6c4965b94b21b3df637ec2c327461032
1,600,73,10,1,4,9999,553,6c4965b94b21b3df637ec2c327461032
1,601,28,91,1,4,9999,532,6c4965b94b21b3df637ec2c327461032
1,602,28,37,1,3,9999,1621,6c4965b94b21b3df637ec2c327461032
1,603,55,28,1,4,9999,991,6c4965b94b21b3df637ec2c327461032
1,604,37,82,1,4,9999,635,6c4965b94b21b3df637ec2c327461032
1,605,82,55,1,4,9999,923,6c4965b94b21b3df637ec2c327461032
1,606,19,19,1,4,9999,890,6c4965b94b21b3df637ec2c327461032
1,607,37,91,1,4,9999,704,6c4965b94b21b3df637ec2c327461032
1,608,10,37,1,3,9999,1245,6c4965b94b21b3df637ec2c327461032
1,609,46,19,1,4,9999,1130,6c4965b94b21b3df637ec2c327461032
1,610,19,91,1,4,9999,690,6c4965b94b21b3df637ec2c327461032
1,611,64,91,1,4,9999,803,6c4965b94b21b3df637ec2c327461032
1,612,46,28,1,3,9999,3279,6c4965b94b21b3df637ec2c327461032
1,613,28,91,1,4,9999,682,6c4965b94b21b3df637ec2c327461032
1,614,55,64,1,3,9999,1172,6c4965b94b21b3df637ec2c327461032
1,615,46,19,1,4,9999,626,6c4965b94b21b3df637ec2c327461032
1,616,46,19,1,4,9999,523,6c4965b94b21b3df637ec2c327461032
1,617,37,91,1,4,9999,477,6c4965b94b21b3df637ec2c327461032
1,618,10,64,1,4,9999,701,6c4965b94b21b3df637ec2c327461032
1,619,64,64,1,4,9999,707,6c4965b94b21b3df637ec2c327461032
1,620,82,28,1,4,9999,813,6c4965b94b21b3df637ec2c327461032
1,621,73,55,1,4,9999,711,6c4965b94b21b3df637ec2c327461032
1,622,64,46,1,4,9999,816,6c4965b94b21b3df637ec2c327461032
1,623,82,91,1,4,9999,1463,6c4965b94b21b3df637ec2c327461032
1,624,91,91,1,4,9999,840,6c4965b94b21b3df637ec2c327461032
1,625,19,19,1,3,9999,963,6c4965b94b21b3df637ec2c327461032
1,626,28,28,1,3,9999,929,6c4965b94b21b3df637ec2c327461032
1,627,55,46,1,4,9999,1887,6c4965b94b21b3df637ec2c327461032
1,628,73,55,1,4,9999,652,6c4965b94b21b3df637ec2c327461032
1,629,82,82,1,4,9999,751,6c4965b94b21b3df637ec2c327461032
1,630,91,55,1,4,9999,844,6c4965b94b21b3df637ec2c327461032
1,631,64,82,1,4,9999,817,6c4965b94b21b3df637ec2c327461032
1,632,82,82,1,4,9999,1386,6c4965b94b21b3df637ec2c327461032
1,633,73,91,1,4,9999,783,6c4965b94b21b3df637ec2c327461032
1,634,73,64,1,3,9999,1186,6c4965b94b21b3df637ec2c327461032
1,635,91,91,1,4,9999,623,6c4965b94b21b3df637ec2c327461032
1,636,10,28,1,4,9999,930,6c4965b94b21b3df637ec2c327461032
1,637,55,55,1,4,9999,1013,6c4965b94b21b3df637ec2c327461032
1,638,19,91,1,4,9999,706,6c4965b94b21b3df637ec2c327461032
1,639,82,82,1,4,9999,845,6c4965b94b21b3df637ec2c327461032
2,0,73,55,2,1,0,1981,644e74082dea116345e87208e1669b38
2,1,55,46,2,1,0,1933,644e74082dea116345e87208e1669b38
2,2,55,37,2,2,1,1558,644e74082dea116345e87208e1669b38
2,3,46,64,2,2,1,1340,644e74082dea116345e87208e1669b38
2,4,37,28,2,2,1,1039,644e74082dea116345e87208e1669b38
2,5,55,73,2,2,1,1378,644e74082dea116345e87208e1669b38
2,6,64,73,2,2,1,1622,644e74082dea116345e87208e1669b38
2,7,46,55,2,2,1,682,644e74082dea116345e87208e1669b38
2,8,28,28,2,2,1,786,644e74082dea116345e87208e1669b38
2,9,37,55,2,2,1,1203,644e74082dea116345e87208e1669b38
2,10,64,73,2,2,1,747,644e74082dea116345e87208e1669b38
2,11,37,55,2,2,1,306,644e74082dea116345e87208e1669b38
2,12,64,64,2,2,1,307,644e74082dea116345e87208e1669b38
2,13,55,73,2,2,1,348,644e74082dea116345e87208e1669b38
2,14,37,46,2,2,1,818,644e74082dea116345e87208e1669b38
2,15,28,28,2,2,1,1404,644e74082dea116345e87208e1669b38
2,16,46,28,2,2,1,2308,644e74082dea116345e87208e1669b38
2,17,73,73,2,2,1,934,644e74082dea116345e87208e1669b38
2,18,55,64,2,2,1,545,644e74082dea116345e87208e1669b38
2,19,64,55,2,2,1,928,644e74082dea116345e87208e1669b38
2,20,64,46,2,2,1,1253,644e74082dea116345e87208e1669b38
2,21,46,37,2,2,1,803,644e74082dea116345e87208e1669b38
2,22,55,46,2,2,1,1061,644e74082dea116345e87208e1669b38
2,23,55,55,2,2,1,638,644e74082dea116345e87208e1669b38
2,24,28,46,2,2,1,941,644e74082dea116345e87208e1669b38
2,25,28,37,2,2,1,503,644e74082dea116345e87208e1669b38
2,26,46,46,2,2,1,1140,644e74082dea116345e87208e1669b38
2,27,73,55,2,2,1,1439,644e74082dea116345e87208e1669b38
2,28,73,64,2,2,1,700,644e74082dea116345e87208e1669b38
2,29,46,46,2,2,1,645,644e74082dea116345e87208e1669b38
2,30,46,55,2,2,1,358,644e74082dea116345e87208e1669b38
2,31,55,55,2,2,1,388,644e74082dea116345e87208e1669b38
2,32,46,37,2,2,1,1218,644e74082dea116345e87208e1669b38
2,33,46,64,2,2,1,495,644e74082dea116345e87208e1669b38
2,34,64,64,2,2,1,310,644e74082dea116345e87208e1669b38
2,35,37,37,2,2,1,460,644e74082dea116345e87208e1669b38
2,36,37,37,2,2,1,844,644e74082dea116345e87208e1669b38
2,37,28,37,2,2,1,805,644e74082dea116345e87208e1669b38
2,38,46,28,2,2,1,615,644e74082dea116345e87208e1669b38
2,39,37,46,2,2,1,539,644e74082dea116345e87208e1669b38
2,40,46,46,2,2,1,655,644e74082dea116345e87208e1669b38
2,41,55,46,2,2,1,793,644e74082dea116345e87208e1669b38
2,42,82,91,1,1,1,1225,644e74082dea116345e87208e1669b38
2,43,73,46,1,2,0,718,644e74082dea116345e87208e1669b38
2,44,46,28,2,2,1,1250,644e74082dea116345e87208e1669b38
2,45,82,82,1,1,1,1486,644e74082dea116345e87208e1669b38
2,46,46,28,2,2,1,776,644e74082dea116345e87208e1669b38
2,47,55,28,1,2,0,716,644e74082dea116345e87208e1669b38
2,48,91,91,1,1,1,1118,644e74082dea116345e87208e1669b38
2,49,64,55,2,2,1,837,644e74082dea116345e87208e1669b38
2,50,19,28,1,2,0,960,644e74082dea116345e87208e1669b38
2,51,46,37,2,2,1,959,644e74082dea116345e87208e1669b38
2,52,10,55,1,1,1,1163,644e74082dea116345e87208e1669b38
2,53,46,28,2,2,1,1078,644e74082dea116345e87208e1669b38
2,54,55,28,1,2,0,1125,644e74082dea116345e87208e1669b38
2,55,91,91,1,1,1,1152,644e74082dea116345e87208e1669b38
2,56,46,64,2,1,0,824,644e74082dea116345e87208e1669b38
2,57,10,37,1,1,1,371,644e74082dea116345e87208e1669b38
2,58,37,28,2,1,0,436,644e74082dea116345e87208e1669b38
2,59,46,37,2,1,0,349,644e74082dea116345e87208e1669b38
2,60,28,37,2,2,1,839,644e74082dea116345e87208e1669b38
2,61,28,91,1,1,1,840,644e74082dea116345e87208e1669b38
2,62,46,46,2,2,1,645,644e74082dea116345e87208e1669b38
2,63,46,55,2,2,1,781,644e74082dea116345e87208e1669b38
2,64,91,55,1,2,0,849,644e74082dea116345e87208e1669b38
2,65,10,73,1,2,0,1829,644e74082dea116345e87208e1669b38
2,66,55,64,2,1,0,1484,644e74082dea116345e87208e1669b38
2,67,28,46,2,2,1,1367,644e74082dea116345e87208e1669b38
2,68,55,73,2,2,1,802,644e74082dea116345e87208e1669b38
2,69,91,10,1,1,1,2350,644e74082dea116345e87208e1669b38
2,70,64,82,1,1,1,1467,644e74082dea116345e87208e1669b38
2,71,10,28,1,2,0,1048,644e74082dea116345e87208e1669b38
2,72,19,37,1,2,0,1072,644e74082dea116345e87208e1669b38
2,73,46,55,2,2,1,1316,644e74082dea116345e87208e1669b38
2,74,55,73,2,1,0,1627,644e74082dea116345e87208e1669b38
2,75,37,55,2,2,1,859,644e74082dea116345e87208e1669b38
2,76,82,19,1,1,1,1352,644e74082dea116345e87208e1669b38
2,77,46,37,2,1,0,1700,644e74082dea116345e87208e1669b38
2,78,73,73,2,1,0,1284,644e74082dea116345e87208e1669b38
2,79,46,46,2,2,1,1391,644e74082dea116345e87208e1669b38
2,80,19,28,1,2,0,1585,644e74082dea116345e87208e1669b38
2,81,10,73,1,1,1,1582,644e74082dea116345e87208e1669b38
2,82,46,73,1,1,1,1358,644e74082dea116345e87208e1669b38
2,83,46,46,2,2,1,725,644e74082dea116345e87208e1669b38
2,84,55,73,2,1,0,1423,644e74082dea116345e87208e1669b38
2,85,64,64,2,2,1,1209,644e74082dea116345e87208e1669b38
2,86,64,55,2,2,1,1254,644e74082dea116345e87208e1669b38
2,87,55,37,2,1,0,1832,644e74082dea116345e87208e1669b38
2,88,64,19,1,1,1,1565,644e74082dea116345e87208e1669b38
2,89,64,46,2,2,1,1137,644e74082dea116345e87208e1669b38
2,90,19,46,1,2,0,1924,644e74082dea116345e87208e1669b38
2,91,64,55,2,2,1,1520,644e74082dea116345e87208e1669b38
2,92,55,19,1,1,1,943,644e74082dea116345e87208e1669b38
2,93,19,64,1,2,0,2140,644e74082dea116345e87208e1669b38
2,94,82,37,1,2,0,1601,644e74082dea116345e87208e1669b38
2,95,64,46,2,2,1,1123,644e74082dea116345e87208e1669b38
2,96,55,64,2,2,1,1850,644e74082dea116345e87208e1669b38
2,97,10,55,1,1,1,1539,644e74082dea116345e87208e1669b38
2,98,37,10,1,1,1,1595,644e74082dea116345e87208e1669b38
2,99,82,82,1,1,1,1996,644e74082dea116345e87208e1669b38
2,100,37,37,2,2,1,1411,644e74082dea116345e87208e1669b38
2,101,28,91,1,1,1,1691,644e74082dea116345e87208e1669b38
2,102,73,10,1,1,1,1096,644e74082dea116345e87208e1669b38
2,103,82,19,1,1,1,1182,644e74082dea116345e87208e1669b38
2,104,19,82,1,1,1,1146,644e74082dea116345e87208e1669b38
2,105,55,64,2,2,1,1220,644e74082dea116345e87208e1669b38
2,106,91,10,1,1,1,741,644e74082dea116345e87208e1669b38
2,107,64,64,2,1,0,1453,644e74082dea116345e87208e1669b38
2,108,55,55,2,2,1,885,644e74082dea116345e87208e1669b38
2,109,64,28,1,1,1,1052,644e74082dea116345e87208e1669b38
2,110,28,37,2,1,0,1219,644e74082dea116345e87208e1669b38
2,111,28,28,2,1,0,1591,644e74082dea116345e87208e1669b38
2,112,28,10,1,1,1,757,644e74082dea116345e87208e1669b38
2,113,82,73,1,1,1,1281,644e74082dea116345e87208e1669b38
2,114,46,55,2,2,1,1146,644e74082dea116345e87208e1669b38
2,115,28,55,1,2,0,1710,644e74082dea116345e87208e1669b38
2,116,82,64,1,1,1,1093,644e74082dea116345e87208e1669b38
2,117,91,46,1,1,1,1074,644e74082dea116345e87208e1669b38
2,118,46,28,2,2,1,1250,644e74082dea116345e87208e1669b38
2,119,55,19,1,1,1,1024,644e74082dea116345e87208e1669b38
2,120,28,37,2,2,1,1408,644e74082dea116345e87208e1669b38
2,121,37,73,1,1,1,2012,644e74082dea116345e87208e1669b38
2,122,73,10,1,1,1,892,644e74082dea116345e87208e1669b38
2,123,37,46,2,2,1,1145,644e74082dea116345e87208e1669b38
2,124,37,46,2,2,1,1086,644e74082dea116345e87208e1669b38
2,125,37,46,2,2,1,1079,644e74082dea116345e87208e1669b38
2,126,46,64,2,1,0,1315,644e74082dea116345e87208e1669b38
2,127,28,10,1,1,1,666,644e74082dea116345e87208e1669b38
2,128,19,46,1,2,0,1493,644e74082dea116345e87208e1669b38
2,129,64,73,2,1,0,1522,644e74082dea116345e87208e1669b38
2,130,37,46,2,2,1,1470,644e74082dea116345e87208e1669b38
2,131,55,10,1,1,1,1375,644e74082dea116345e87208e1669b38
2,132,10,73,1,1,1,1560,644e74082dea116345e87208e1669b38
2,133,73,73,2,1,0,1020,644e74082dea116345e87208e1669b38
2,134,10,19,1,1,1,1193,644e74082dea116345e87208e1669b38
2,135,10,46,1,1,1,1630,644e74082dea116345e87208e1669b38
2,136,46,28,2,2,1,1233,644e74082dea116345e87208e1669b38
2,137,73,19,1,1,1,1256,644e74082dea116345e87208e1669b38
2,138,64,37,1,2,0,1545,644e74082dea116345e87208e1669b38
2,139,46,64,2,2,1,1177,644e74082dea116345e87208e1669b38
2,140,82,10,1,1,1,1069,644e74082dea116345e87208e1669b38
2,141,46,82,1,1,1,1792,644e74082dea116345e87208e1669b38
2,142,64,73,2,2,1,1775,644e74082dea116345e87208e1669b38
2,143,64,46,2,2,1,1328,644e74082dea116345e87208e1669b38
2,144,19,28,1,1,1,955,644e74082dea116345e87208e1669b38
2,145,28,82,1,1,1,1782,644e74082dea116345e87208e1669b38
2,146,28,55,1,2,0,1478,644e74082dea116345e87208e1669b38
2,147,10,64,1,1,1,2368,644e74082dea116345e87208e1669b38
2,148,46,55,2,2,1,1096,644e74082dea116345e87208e1669b38
2,149,19,91,1,1,1,1183,644e74082dea116345e87208e1669b38
2,150,46,46,2,2,1,952,644e74082dea116345e87208e1669b38
2,151,64,55,2,2,1,1371,644e74082dea116345e87208e1669b38
2,152,28,28,2,1,0,1199,644e74082dea116345e87208e1669b38
2,153,37,37,2,2,1,1010,644e74082dea116345e87208e1669b38
2,154,10,28,1,1,1,1734,644e74082dea116345e87208e1669b38
2,155,73,73,2,1,0,1095,644e74082dea116345e87208e1669b38
2,156,46,64,2,2,1,1145,644e74082dea116345e87208e1669b38
2,157,73,10,1,1,1,1080,644e74082dea116345e87208e1669b38
2,158,91,55,1,2,0,1590,644e74082dea116345e87208e1669b38
2,159,10,82,1,1,1,1494,644e74082dea116345e87208e1669b38
2,160,64,10,1,2,0,4494,644e74082dea116345e87208e1669b38
2,161,28,37,2,1,0,1344,644e74082dea116345e87208e1669b38
2,162,37,19,1,1,1,1485,644e74082dea116345e87208e1669b38
2,163,46,82,1,1,1,1267,644e74082dea116345e87208e1669b38
2,164,46,64,2,2,1,1009,644e74082dea116345e87208e1669b38
2,165,46,73,1,1,1,1164,644e74082dea116345e87208e1669b38
2,166,46,82,1,1,1,947,644e74082dea116345e87208e1669b38
2,167,37,37,2,2,1,803,644e74082dea116345e87208e1669b38
2,168,19,82,1,1,1,1011,644e74082dea116345e87208e1669b38
2,169,46,55,2,2,1,1094,644e74082dea116345e87208e1669b38
2,170,55,37,2,2,1,1125,644e74082dea116345e87208e1669b38
2,171,28,73,1,1,1,1355,644e74082dea116345e87208e1669b38
2,172,55,55,2,2,1,1291,644e74082dea116345e87208e1669b38
2,173,55,55,2,2,1,973,644e74082dea116345e87208e1669b38
2,174,73,28,1,2,0,1702,644e74082dea116345e87208e1669b38
2,175,37,37,2,2,1,1341,644e74082dea116345e87208e1669b38
2,176,28,28,2,1,0,1531,644e74082dea116345e87208e1669b38
2,177,91,73,1,1,1,1062,644e74082dea116345e87208e1669b38
2,178,46,37,2,2,1,1431,644e74082dea116345e87208e1669b38
2,179,55,46,2,2,1,1279,644e74082dea116345e87208e1669b38
2,180,55,64,2,2,1,1291,644e74082dea116345e87208e1669b38
2,181,55,37,2,2,1,1047,644e74082dea116345e87208e1669b38
2,182,46,64,2,2,1,1779,644e74082dea116345e87208e1669b38
2,183,91,91,1,1,1,888,644e74082dea116345e87208e1669b38
2,184,73,64,2,2,1,1277,644e74082dea116345e87208e1669b38
2,185,28,82,1,1,1,1302,644e74082dea116345e87208e1669b38
2,186,91,55,1,1,1,1375,644e74082dea116345e87208e1669b38
2,187,82,28,1,1,1,1195,644e74082dea116345e87208e1669b38
2,188,46,55,2,2,1,1530,644e74082dea116345e87208e1669b38
2,189,64,64,2,1,0,1692,644e74082dea116345e87208e1669b38
2,190,73,82,1,1,1,947,644e74082dea116345e87208e1669b38
2,191,28,37,2,2,1,1436,644e74082dea116345e87208e1669b38
2,192,19,19,1,1,1,1098,644e74082dea116345e87208e1669b38
2,193,28,73,1,1,1,1674,644e74082dea116345e87208e1669b38
2,194,28,91,1,1,1,973,644e74082dea116345e87208e1669b38
2,195,73,28,1,1,1,1098,644e74082dea116345e87208e1669b38
2,196,55,73,2,1,0,1107,644e74082dea116345e87208e1669b38
2,197,10,46,1,2,0,1536,644e74082dea116345e87208e1669b38
2,198,73,55,2,2,1,1146,644e74082dea116345e87208e1669b38
2,199,82,46,1,2,0,1038,644e74082dea116345e87208e1669b38
2,200,19,64,1,1,1,1687,644e74082dea116345e87208e1669b38
2,201,37,37,2,2,1,1413,644e74082dea116345e87208e1669b38
2,202,82,10,1,1,1,950,644e74082dea116345e87208e1669b38
2,203,37,28,2,2,1,1419,644e74082dea116345e87208e1669b38
2,204,91,10,1,1,1,866,644e74082dea116345e87208e1669b38
2,205,55,55,2,2,1,914,644e74082dea116345e87208e1669b38
2,206,55,64,2,2,1,1152,644e74082dea116345e87208e1669b38
2,207,37,46,2,2,1,935,644e74082dea116345e87208e1669b38
2,208,82,73,1,1,1,1022,644e74082dea116345e87208e1669b38
2,209,73,64,2,2,1,1094,644e74082dea116345e87208e1669b38
2,210,46,46,2,2,1,1224,644e74082dea116345e87208e1669b38
2,211,55,19,1,1,1,813,644e74082dea116345e87208e1669b38
2,212,37,37,2,2,1,831,644e74082dea116345e87208e1669b38
2,213,55,37,2,2,1,717,644e74082dea116345e87208e1669b38
2,214,55,64,2,2,1,1300,644e74082dea116345e87208e1669b38
2,215,37,28,2,1,0,1078,644e74082dea116345e87208e1669b38
2,216,28,19,1,1,1,1051,644e74082dea116345e87208e1669b38
2,217,55,46,2,2,1,903,644e74082dea116345e87208e1669b38
2,218,37,46,2,2,1,798,644e74082dea116345e87208e1669b38
2,219,64,91,1,1,1,967,644e74082dea116345e87208e1669b38
2,220,28,37,2,2,1,1223,644e74082dea116345e87208e1669b38
2,221,28,28,2,2,1,1526,644e74082dea116345e87208e1669b38
2,222,46,37,2,2,1,974,644e74082dea116345e87208e1669b38
2,223,73,64,2,2,1,1337,644e74082dea116345e87208e1669b38
2,224,64,55,2,2,1,830,644e74082dea116345e87208e1669b38
2,225,10,91,1,1,1,1021,644e74082dea116345e87208e1669b38
2,226,91,46,1,2,0,1154,644e74082dea116345e87208e1669b38
2,227,10,91,1,1,1,863,644e74082dea116345e87208e1669b38
2,228,37,46,2,2,1,818,644e74082dea116345e87208e1669b38
2,229,64,10,1,1,1,895,644e74082dea116345e87208e1669b38
2,230,82,37,1,2,0,1161,644e74082dea116345e87208e1669b38
2,231,64,55,2,2,1,1325,644e74082dea116345e87208e1669b38
2,232,37,37,2,2,1,854,644e74082dea116345e87208e1669b38
2,233,55,10,1,1,1,841,644e74082dea116345e87208e1669b38
2,234,55,73,2,1,0,1564,644e74082dea116345e87208e1669b38
2,235,28,37,2,1,0,1666,644e74082dea116345e87208e1669b38
2,236,55,46,2,2,1,1034,644e74082dea116345e87208e1669b38
2,237,55,73,2,2,1,1376,644e74082dea116345e87208e1669b38
2,238,19,37,1,1,1,917,644e74082dea116345e87208e1669b38
2,239,37,82,1,1,1,1670,644e74082dea116345e87208e1669b38
2,240,91,73,1,1,1,1743,644e74082dea116345e87208e1669b38
2,241,46,64,2,2,1,2300,644e74082dea116345e87208e1669b38
2,242,28,82,1,1,1,1282,644e74082dea116345e87208e1669b38
2,243,28,46,2,2,1,1303,644e74082dea116345e87208e1669b38
2,244,37,28,2,2,1,1474,644e74082dea116345e87208e1669b38
2,245,28,46,2,2,1,1157,644e74082dea116345e87208e1669b38
2,246,55,37,2,2,1,1203,644e74082dea116345e87208e1669b38
2,247,10,37,1,2,0,648,644e74082dea116345e87208e1669b38
2,248,37,73,1,2,0,1179,644e74082dea116345e87208e1669b38
2,249,37,64,1,2,0,1642,644e74082dea116345e87208e1669b38
2,250,19,37,1,1,1,1640,644e74082dea116345e87208e1669b38
2,251,73,19,1,1,1,1068,644e74082dea116345e87208e1669b38
2,252,28,46,2,1,0,1378,644e74082dea116345e87208e1669b38
2,253,19,64,1,2,0,1110,644e74082dea116345e87208e1669b38
2,254,28,46,2,1,0,1915,644e74082dea116345e87208e1669b38
2,255,46,64,2,2,1,1885,644e74082dea116345e87208e1669b38
2,256,82,55,1,2,0,1171,644e74082dea116345e87208e1669b38
2,257,37,37,2,2,1,2010,644e74082dea116345e87208e1669b38
2,258,82,64,1,1,1,1275,644e74082dea116345e87208e1669b38
2,259,19,37,1,2,0,1571,644e74082dea116345e87208e1669b38
2,260,10,28,1,1,1,1430,644e74082dea116345e87208e1669b38
2,261,28,28,2,2,1,1559,644e74082dea116345e87208e1669b38
2,262,64,46,2,2,1,2021,644e74082dea116345e87208e1669b38
2,263,37,55,2,2,1,1112,644e74082dea116345e87208e1669b38
2,264,64,73,2,1,0,1288,644e74082dea116345e87208e1669b38
2,265,64,10,1,1,1,897,644e74082dea116345e87208e1669b38
2,266,73,55,2,2,1,1415,644e74082dea116345e87208e1669b38
2,267,64,55,2,2,1,968,644e74082dea116345e87208e1669b38
2,268,73,55,2,2,1,1336,644e74082dea116345e87208e1669b38
2,269,28,37,2,1,0,1519,644e74082dea116345e87208e1669b38
2,270,46,64,2,2,1,1113,644e74082dea116345e87208e1669b38
2,271,73,64,2,2,1,1540,644e74082dea116345e87208e1669b38
2,272,37,37,2,1,0,1905,644e74082dea116345e87208e1669b38
2,273,64,28,1,2,0,1670,644e74082dea116345e87208e1669b38
2,274,64,55,2,2,1,1237,644e74082dea116345e87208e1669b38
2,275,73,91,1,1,1,2010,644e74082dea116345e87208e1669b38
2,276,55,55,2,2,1,1011,644e74082dea116345e87208e1669b38
2,277,46,10,1,1,1,946,644e74082dea116345e87208e1669b38
2,278,82,55,1,2,0,1477,644e74082dea116345e87208e1669b38
2,279,37,19,1,1,1,1893,644e74082dea116345e87208e1669b38
2,280,64,55,2,2,1,911,644e74082dea116345e87208e1669b38
2,281,19,73,1,1,1,1463,644e74082dea116345e87208e1669b38
2,282,55,37,2,2,1,1146,644e74082dea116345e87208e1669b38
2,283,82,10,1,1,1,964,644e74082dea116345e87208e1669b38
2,284,64,64,2,2,1,1199,644e74082dea116345e87208e1669b38
2,285,28,46,2,1,0,1565,644e74082dea116345e87208e1669b38
2,286,10,64,1,1,1,1583,644e74082dea116345e87208e1669b38
2,287,37,19,1,2,0,1895,644e74082dea116345e87208e1669b38
2,288,37,73,1,1,1,2135,644e74082dea116345e87208e1669b38
2,289,73,19,1,1,1,1759,644e74082dea116345e87208e1669b38
2,290,55,46,2,2,1,975,644e74082dea116345e87208e1669b38
2,291,28,28,2,2,1,1616,644e74082dea116345e87208e1669b38
2,292,91,73,1,1,1,1651,644e74082dea116345e87208e1669b38
2,293,64,64,2,2,1,1198,644e74082dea116345e87208e1669b38
2,294,64,46,2,2,1,1970,644e74082dea116345e87208e1669b38
2,295,73,55,2,2,1,1568,644e74082dea116345e87208e1669b38
2,296,37,55,2,2,1,2114,644e74082dea116345e87208e1669b38
2,297,28,64,1,1,1,1598,644e74082dea116345e87208e1669b38
2,298,46,46,2,2,1,1320,644e74082dea116345e87208e1669b38
2,299,73,64,2,1,0,1888,644e74082dea116345e87208e1669b38
2,300,46,28,2,2,1,1037,644e74082dea116345e87208e1669b38
2,301,64,10,1,1,1,947,644e74082dea116345e87208e1669b38
2,302,64,37,1,2,0,1075,644e74082dea116345e87208e1669b38
2,303,73,37,1,2,0,1136,644e74082dea116345e87208e1669b38
2,304,82,10,1,1,1,889,644e74082dea116345e87208e1669b38
2,305,64,64,2,2,1,1114,644e74082dea116345e87208e1669b38
2,306,55,37,2,2,1,975,644e74082dea116345e87208e1669b38
2,307,28,37,2,1,0,1145,644e74082dea116345e87208e1669b38
2,308,64,19,1,1,1,2218,644e74082dea116345e87208e1669b38
2,309,55,55,2,2,1,1176,644e74082dea116345e87208e1669b38
2,310,91,10,1,1,1,891,644e74082dea116345e87208e1669b38
2,311,28,28,2,1,0,1846,644e74082dea116345e87208e1669b38
2,312,37,55,2,1,0,1639,644e74082dea116345e87208e1669b38
2,313,37,91,1,1,1,1264,644e74082dea116345e87208e1669b38
2,314,19,55,1,1,1,1612,644e74082dea116345e87208e1669b38
2,315,82,37,1,2,0,1803,644e74082dea116345e87208e1669b38
2,316,82,28,1,2,0,1997,644e74082dea116345e87208e1669b38
2,317,82,46,1,1,1,1726,644e74082dea116345e87208e1669b38
2,318,46,37,2,2,1,925,644e74082dea116345e87208e1669b38
2,319,10,46,1,1,1,1379,644e74082dea116345e87208e1669b38
2,320,37,55,2,2,1,2573,644e74082dea116345e87208e1669b38
2,321,91,28,1,1,1,1690,644e74082dea116345e87208e1669b38
2,322,91,37,1,2,0,1927,644e74082dea116345e87208e1669b38
2,323,28,37,2,2,1,1371,644e74082dea116345e87208e1669b38
2,324,64,91,1,1,1,1259,644e74082dea116345e87208e1669b38
2,325,64,64,2,2,1,1296,644e74082dea116345e87208e1669b38
2,326,46,37,2,2,1,1122,644e74082dea116345e87208e1669b38
2,327,46,28,2,1,0,1191,644e74082dea116345e87208e1669b38
2,328,91,64,1,1,1,1480,644e74082dea116345e87208e1669b38
2,329,82,91,1,1,1,1342,644e74082dea116345e87208e1669b38
2,330,28,55,1,1,1,1994,644e74082dea116345e87208e1669b38
2,331,55,91,1,2,0,1151,644e74082dea116345e87208e1669b38
2,332,64,73,2,2,1,1783,644e74082dea116345e87208e1669b38
2,333,19,28,1,1,1,1375,644e74082dea116345e87208e1669b38
2,334,37,28,2,1,0,1610,644e74082dea116345e87208e1669b38
2,335,37,10,1,1,1,1030,644e74082dea116345e87208e1669b38
2,336,28,37,2,2,1,1781,644e74082dea116345e87208e1669b38
2,337,64,91,1,1,1,2100,644e74082dea116345e87208e1669b38
2,338,37,28,2,1,0,1460,644e74082dea116345e87208e1669b38
2,339,37,64,1,2,0,1323,644e74082dea116345e87208e1669b38
2,340,73,73,2,2,1,1801,644e74082dea116345e87208e1669b38
2,341,28,37,2,1,0,1729,644e74082dea116345e87208e1669b38
2,342,46,28,2,2,1,1928,644e74082dea116345e87208e1669b38
2,343,73,19,1,1,1,1004,644e74082dea116345e87208e1669b38
2,344,46,91,1,1,1,992,644e74082dea116345e87208e1669b38
2,345,82,82,1,1,1,2159,644e74082dea116345e87208e1669b38
2,346,46,55,2,2,1,2222,644e74082dea116345e87208e1669b38
2,347,10,10,1,1,1,996,644e74082dea116345e87208e1669b38
2,348,91,82,1,1,1,1226,644e74082dea116345e87208e1669b38
2,349,46,46,2,2,1,1024,644e74082dea116345e87208e1669b38
2,350,37,73,1,2,0,2446,644e74082dea116345e87208e1669b38
2,351,64,73,2,2,1,1646,644e74082dea116345e87208e1669b38
2,352,28,19,1,1,1,820,644e74082dea116345e87208e1669b38
2,353,55,73,2,1,0,985,644e74082dea116345e87208e1669b38
2,354,55,73,2,2,1,1697,644e74082dea116345e87208e1669b38
2,355,64,19,1,1,1,989,644e74082dea116345e87208e1669b38
2,356,64,46,2,2,1,1074,644e74082dea116345e87208e1669b38
2,357,91,64,1,1,1,1584,644e74082dea116345e87208e1669b38
2,358,55,46,2,2,1,1064,644e74082dea116345e87208e1669b38
2,359,73,28,1,1,1,1019,644e74082dea116345e87208e1669b38
2,360,55,55,2,2,1,1265,644e74082dea116345e87208e1669b38
2,361,28,28,2,1,0,2177,644e74082dea116345e87208e1669b38
2,362,10,82,1,1,1,1134,644e74082dea116345e87208e1669b38
2,363,55,55,2,2,1,1337,644e74082dea116345e87208e1669b38
2,364,73,82,1,1,1,1582,644e74082dea116345e87208e1669b38
2,365,73,73,2,2,1,1593,644e74082dea116345e87208e1669b38
2,366,37,28,2,1,0,2070,644e74082dea116345e87208e1669b38
2,367,64,37,1,2,0,1120,644e74082dea116345e87208e1669b38
2,368,19,91,1,1,1,1855,644e74082dea116345e87208e1669b38
2,369,46,19,1,1,1,1359,644e74082dea116345e87208e1669b38
2,370,91,37,1,1,1,2124,644e74082dea116345e87208e1669b38
2,371,91,19,1,1,1,1284,644e74082dea116345e87208e1669b38
2,372,37,55,2,1,0,1901,644e74082dea116345e87208e1669b38
2,373,55,37,2,2,1,938,644e74082dea116345e87208e1669b38
2,374,10,19,1,1,1,860,644e74082dea116345e87208e1669b38
2,375,73,64,2,2,1,1121,644e74082dea116345e87208e1669b38
2,376,28,28,2,1,0,1266,644e74082dea116345e87208e1669b38
2,377,82,91,1,1,1,1186,644e74082dea116345e87208e1669b38
2,378,64,55,2,2,1,2086,644e74082dea116345e87208e1669b38
2,379,46,46,2,2,1,2159,644e74082dea116345e87208e1669b38
2,380,82,73,1,1,1,1610,644e74082dea116345e87208e1669b38
2,381,37,82,1,1,1,1849,644e74082dea116345e87208e1669b38
2,382,73,55,2,2,1,1739,644e74082dea116345e87208e1669b38
2,383,82,91,1,1,1,999,644e74082dea116345e87208e1669b38
2,384,28,28,2,1,0,1111,644e74082dea116345e87208e1669b38
2,385,28,46,2,1,0,1090,644e74082dea116345e87208e1669b38
2,386,82,19,1,1,1,951,644e74082dea116345e87208e1669b38
2,387,64,82,1,1,1,1810,644e74082dea116345e87208e1669b38
2,388,46,73,1,1,1,1658,644e74082dea116345e87208e1669b38
2,389,82,37,1,2,0,1164,644e74082dea116345e87208e1669b38
2,390,28,55,1,2,0,1992,644e74082dea116345e87208e1669b38
2,391,73,46,1,2,0,1133,644e74082dea116345e87208e1669b38
2,392,37,55,2,2,1,1766,644e74082dea116345e87208e1669b38
2,393,55,64,2,2,1,1201,644e74082dea116345e87208e1669b38
2,394,64,28,1,2,0,2435,644e74082dea116345e87208e1669b38
2,395,19,64,1,1,1,1193,644e74082dea116345e87208e1669b38
2,396,55,37,2,2,1,2193,644e74082dea116345e87208e1669b38
2,397,91,82,1,1,1,984,644e74082dea116345e87208e1669b38
2,398,91,37,1,1,1,3034,644e74082dea116345e87208e1669b38
2,399,73,73,2,1,0,1526,644e74082dea116345e87208e1669b38
2,400,91,82,1,1,1,1323,644e74082dea116345e87208e1669b38
2,401,37,28,2,1,0,1304,644e74082dea116345e87208e1669b38
2,402,64,64,2,2,1,1120,644e74082dea116345e87208e1669b38
2,403,46,10,1,1,1,1149,644e74082dea116345e87208e1669b38
2,404,91,46,1,1,1,1327,644e74082dea116345e87208e1669b38
2,405,37,46,2,1,0,1398,644e74082dea116345e87208e1669b38
2,406,55,73,2,2,1,1625,644e74082dea116345e87208e1669b38
2,407,64,73,2,2,1,1045,644e74082dea116345e87208e1669b38
2,408,37,28,2,1,0,1403,644e74082dea116345e87208e1669b38
2,409,73,28,1,1,1,1873,644e74082dea116345e87208e1669b38
2,410,19,91,1,1,1,879,644e74082dea116345e87208e1669b38
2,411,73,73,2,2,1,2705,644e74082dea116345e87208e1669b38
2,412,37,91,1,1,1,2448,644e74082dea116345e87208e1669b38
2,413,55,37,2,2,1,2204,644e74082dea116345e87208e1669b38
2,414,64,55,2,2,1,2260,644e74082dea116345e87208e1669b38
2,415,28,46,2,1,0,856,644e74082dea116345e87208e1669b38
2,416,55,64,2,2,1,1166,644e74082dea116345e87208e1669b38
2,417,73,73,2,1,0,1804,644e74082dea116345e87208e1669b38
2,418,28,46,2,1,0,1531,644e74082dea116345e87208e1669b38
2,419,46,37,2,2,1,1188,644e74082dea116345e87208e1669b38
2,420,19,46,1,1,1,966,644e74082dea116345e87208e1669b38
2,421,55,64,2,2,1,2742,644e74082dea116345e87208e1669b38
2,422,37,64,1,2,0,1562,644e74082dea116345e87208e1669b38
2,423,37,10,1,1,1,2654,644e74082dea116345e87208e1669b38
2,424,73,37,1,2,0,2114,644e74082dea116345e87208e1669b38
2,425,19,19,1,2,0,2944,644e74082dea116345e87208e1669b38
2,426,10,37,1,1,1,1289,644e74082dea116345e87208e1669b38
2,427,46,73,1,1,1,2045,644e74082dea116345e87208e1669b38
2,428,37,28,2,2,1,2144,644e74082dea116345e87208e1669b38
2,429,91,37,1,1,1,1621,644e74082dea116345e87208e1669b38
2,430,82,46,1,2,0,4709,644e74082dea116345e87208e1669b38
2,431,55,55,2,2,1,1117,644e74082dea116345e87208e1669b38
2,432,19,46,1,1,1,772,644e74082dea116345e87208e1669b38
2,433,64,73,2,2,1,1293,644e74082dea116345e87208e1669b38
2,434,37,28,2,1,0,1663,644e74082dea116345e87208e1669b38
2,435,19,10,1,1,1,2937,644e74082dea116345e87208e1669b38
2,436,64,73,2,2,1,1348,644e74082dea116345e87208e1669b38
2,437,10,91,1,1,1,1332,644e74082dea116345e87208e1669b38
2,438,73,10,1,1,1,3143,644e74082dea116345e87208e1669b38
2,439,91,73,1,1,1,1477,644e74082dea116345e87208e1669b38
2,440,55,55,2,2,1,924,644e74082dea116345e87208e1669b38
2,441,19,10,1,1,1,858,644e74082dea116345e87208e1669b38
2,442,28,46,2,2,1,3005,644e74082dea116345e87208e1669b38
2,443,73,46,1,1,1,5879,644e74082dea116345e87208e1669b38
2,444,46,28,2,2,1,1285,644e74082dea116345e87208e1669b38
2,445,19,55,1,1,1,887,644e74082dea116345e87208e1669b38
2,446,73,55,2,2,1,1810,644e74082dea116345e87208e1669b38
2,447,55,46,2,2,1,1208,644e74082dea116345e87208e1669b38
2,448,73,73,2,1,0,1732,644e74082dea116345e87208e1669b38
2,449,10,55,1,1,1,873,644e74082dea116345e87208e1669b38
2,450,37,19,1,1,1,2738,644e74082dea116345e87208e1669b38
2,451,28,37,2,1,0,1022,644e74082dea116345e87208e1669b38
2,452,19,10,1,1,1,1243,644e74082dea116345e87208e1669b38
2,453,10,10,1,1,1,3696,644e74082dea116345e87208e1669b38
2,454,37,55,2,1,0,1706,644e74082dea116345e87208e1669b38
2,455,55,19,1,1,1,1002,644e74082dea116345e87208e1669b38
