n_categories,trial_id,x1_true,x2_true,cat_true,response,accuracy,rt,participant_id
4,0,28,46,1,1,1,5665,10de0173fd2ef7007b283baf2b08fdbc
4,2,37,55,2,3,0,320,10de0173fd2ef7007b283baf2b08fdbc
4,4,37,73,2,1,0,939,10de0173fd2ef7007b283baf2b08fdbc
4,6,28,91,2,3,0,416,10de0173fd2ef7007b283baf2b08fdbc
4,8,91,82,4,4,1,543,10de0173fd2ef7007b283baf2b08fdbc
4,9,28,64,2,3,0,37,10de0173fd2ef7007b283baf2b08fdbc
4,10,55,19,3,2,0,231,10de0173fd2ef7007b283baf2b08fdbc
4,11,55,73,4,3,0,41,10de0173fd2ef7007b283baf2b08fdbc
4,12,82,55,4,3,0,18972,10de0173fd2ef7007b283baf2b08fdbc
4,13,37,28,1,4,0,638,10de0173fd2ef7007b283baf2b08fdbc
4,14,82,82,4,2,0,1368,10de0173fd2ef7007b283baf2b08fdbc
4,15,10,55,2,1,0,904,10de0173fd2ef7007b283baf2b08fdbc
4,16,46,37,1,3,0,560,10de0173fd2ef7007b283baf2b08fdbc
4,17,82,73,4,1,0,575,10de0173fd2ef7007b283baf2b08fdbc
4,18,64,55,4,2,0,312,10de0173fd2ef7007b283baf2b08fdbc
4,19,19,46,1,4,0,3586,10de0173fd2ef7007b283baf2b08fdbc
4,20,82,19,3,3,1,795,10de0173fd2ef7007b283baf2b08fdbc
4,21,73,10,3,2,0,1125,10de0173fd2ef7007b283baf2b08fdbc
4,22,10,64,2,1,0,329,10de0173fd2ef7007b283baf2b08fdbc
4,23,28,55,2,4,0,360,10de0173fd2ef7007b283baf2b08fdbc
4,24,28,28,1,3,0,319,10de0173fd2ef7007b283baf2b08fdbc
4,25,64,28,3,1,0,264,10de0173fd2ef7007b283baf2b08fdbc
4,26,55,10,3,2,0,186,10de0173fd2ef7007b283baf2b08fdbc
4,27,46,82,2,2,1,105,10de0173fd2ef7007b283baf2b08fdbc
4,28,37,37,1,2,0,7,10de0173fd2ef7007b283baf2b08fdbc
4,29,91,73,4,2,0,15,10de0173fd2ef7007b283baf2b08fdbc
4,30,73,91,4,2,0,6,10de0173fd2ef7007b283baf2b08fdbc
4,31,19,19,1,2,0,18,10de0173fd2ef7007b283baf2b08fdbc
4,32,82,46,3,2,0,14,10de0173fd2ef7007b283baf2b08fdbc
4,33,37,91,2,2,1,19,10de0173fd2ef7007b283baf2b08fdbc
4,34,46,46,1,2,0,12,10de0173fd2ef7007b283baf2b08fdbc
4,35,64,64,4,2,0,17,10de0173fd2ef7007b283baf2b08fdbc
4,36,28,37,1,2,0,22,10de0173fd2ef7007b283baf2b08fdbc
4,37,82,64,4,2,0,27,10de0173fd2ef7007b283baf2b08fdbc
4,38,73,73,4,2,0,16,10de0173fd2ef7007b283baf2b08fdbc
4,39,82,10,3,2,0,18,10de0173fd2ef7007b283baf2b08fdbc
4,40,46,55,2,2,1,9,10de0173fd2ef7007b283baf2b08fdbc
4,41,37,82,2,2,1,13,10de0173fd2ef7007b283baf2b08fdbc
4,42,64,82,4,2,0,14,10de0173fd2ef7007b283baf2b08fdbc
4,43,91,91,4,2,0,17,10de0173fd2ef7007b283baf2b08fdbc
4,44,73,28,3,2,0,18,10de0173fd2ef7007b283baf2b08fdbc
4,45,82,37,3,2,0,14,10de0173fd2ef7007b283baf2b08fdbc
4,46,19,73,2,2,1,13,10de0173fd2ef7007b283baf2b08fdbc
4,47,10,37,1,2,0,13,10de0173fd2ef7007b283baf2b08fdbc
4,48,46,91,2,2,1,15,10de0173fd2ef7007b283baf2b08fdbc
4,49,55,82,4,2,0,8,10de0173fd2ef7007b283baf2b08fdbc
4,50,91,28,3,2,0,19,10de0173fd2ef7007b283baf2b08fdbc
4,51,28,10,1,2,0,16,10de0173fd2ef7007b283baf2b08fdbc
4,52,28,73,2,2,1,18,10de0173fd2ef7007b283baf2b08fdbc
4,53,73,82,4,2,0,12,10de0173fd2ef7007b283baf2b08fdbc
4,54,10,46,1,2,0,16,10de0173fd2ef7007b283baf2b08fdbc
4,55,73,37,3,2,0,15,10de0173fd2ef7007b283baf2b08fdbc
4,56,55,64,4,2,0,19,10de0173fd2ef7007b283baf2b08fdbc
4,57,55,91,4,2,0,19,10de0173fd2ef7007b283baf2b08fdbc
4,58,10,82,2,2,1,16,10de0173fd2ef7007b283baf2b08fdbc
4,59,10,28,1,2,0,46,10de0173fd2ef7007b283baf2b08fdbc
4,60,37,10,1,2,0,12,10de0173fd2ef7007b283baf2b08fdbc
4,61,37,64,2,2,1,22,10de0173fd2ef7007b283baf2b08fdbc
4,62,10,19,1,2,0,9,10de0173fd2ef7007b283baf2b08fdbc
4,0,46,46,1,2,0,1904,4db2f0754809c5844092b43be12780d7
4,1,64,19,3,1,0,2056,4db2f0754809c5844092b43be12780d7
4,2,64,64,4,2,0,3421,4db2f0754809c5844092b43be12780d7
4,3,64,73,4,1,0,937,4db2f0754809c5844092b43be12780d7
4,4,82,10,3,4,0,1741,4db2f0754809c5844092b43be12780d7
4,5,73,28,3,3,1,1269,4db2f0754809c5844092b43be12780d7
4,6,91,37,3,3,1,1368,4db2f0754809c5844092b43be12780d7
4,7,46,64,2,4,0,1859,4db2f0754809c5844092b43be12780d7
4,8,19,55,2,2,1,1116,4db2f0754809c5844092b43be12780d7
4,9,19,82,2,2,1,1045,4db2f0754809c5844092b43be12780d7
4,10,73,82,4,4,1,1435,4db2f0754809c5844092b43be12780d7
4,11,46,73,2,4,0,1135,4db2f0754809c5844092b43be12780d7
4,12,46,37,1,2,0,1886,4db2f0754809c5844092b43be12780d7
4,13,28,28,1,3,0,1885,4db2f0754809c5844092b43be12780d7
4,14,37,37,1,1,1,925,4db2f0754809c5844092b43be12780d7
4,15,19,19,1,1,1,1162,4db2f0754809c5844092b43be12780d7
4,16,55,46,3,2,0,1749,4db2f0754809c5844092b43be12780d7
4,17,19,91,2,1,0,1067,4db2f0754809c5844092b43be12780d7
4,18,55,64,4,3,0,2106,4db2f0754809c5844092b43be12780d7
4,19,37,82,2,2,1,3235,4db2f0754809c5844092b43be12780d7
4,20,37,73,2,1,0,1279,4db2f0754809c5844092b43be12780d7
4,21,37,64,2,2,1,784,4db2f0754809c5844092b43be12780d7
4,22,55,37,3,2,0,916,4db2f0754809c5844092b43be12780d7
4,23,91,10,3,4,0,1139,4db2f0754809c5844092b43be12780d7
4,24,82,64,4,3,0,994,4db2f0754809c5844092b43be12780d7
4,25,73,55,4,4,1,1061,4db2f0754809c5844092b43be12780d7
4,26,64,55,4,3,0,1199,4db2f0754809c5844092b43be12780d7
4,27,55,10,3,4,0,838,4db2f0754809c5844092b43be12780d7
4,28,37,46,1,2,0,1315,4db2f0754809c5844092b43be12780d7
4,29,37,10,1,1,1,736,4db2f0754809c5844092b43be12780d7
4,30,10,73,2,2,1,1311,4db2f0754809c5844092b43be12780d7
4,31,10,64,2,2,1,942,4db2f0754809c5844092b43be12780d7
4,32,46,19,1,3,0,1044,4db2f0754809c5844092b43be12780d7
4,33,37,28,1,1,1,773,4db2f0754809c5844092b43be12780d7
4,34,55,28,3,3,1,1108,4db2f0754809c5844092b43be12780d7
4,35,28,19,1,1,1,1655,4db2f0754809c5844092b43be12780d7
4,36,91,19,3,4,0,1181,4db2f0754809c5844092b43be12780d7
4,37,64,82,4,4,1,1439,4db2f0754809c5844092b43be12780d7
4,38,73,64,4,3,0,999,4db2f0754809c5844092b43be12780d7
4,39,73,46,3,3,1,1187,4db2f0754809c5844092b43be12780d7
4,40,91,73,4,3,0,1577,4db2f0754809c5844092b43be12780d7
4,41,28,10,1,1,1,1085,4db2f0754809c5844092b43be12780d7
4,42,10,55,2,2,1,1380,4db2f0754809c5844092b43be12780d7
4,43,46,55,2,1,0,1599,4db2f0754809c5844092b43be12780d7
4,44,10,19,1,1,1,1130,4db2f0754809c5844092b43be12780d7
4,45,73,91,4,3,0,1730,4db2f0754809c5844092b43be12780d7
4,46,10,46,1,2,0,2745,4db2f0754809c5844092b43be12780d7
4,47,37,19,1,2,0,1318,4db2f0754809c5844092b43be12780d7
4,48,82,37,3,3,1,1486,4db2f0754809c5844092b43be12780d7
4,49,82,46,3,3,1,892,4db2f0754809c5844092b43be12780d7
4,50,82,55,4,3,0,1203,4db2f0754809c5844092b43be12780d7
4,51,64,46,3,3,1,1741,4db2f0754809c5844092b43be12780d7
4,52,46,82,2,2,1,1205,4db2f0754809c5844092b43be12780d7
4,53,28,37,1,1,1,815,4db2f0754809c5844092b43be12780d7
4,54,28,64,2,1,0,918,4db2f0754809c5844092b43be12780d7
4,55,46,91,2,2,1,1499,4db2f0754809c5844092b43be12780d7
4,56,64,91,4,4,1,1029,4db2f0754809c5844092b43be12780d7
4,57,55,91,4,4,1,1049,4db2f0754809c5844092b43be12780d7
4,58,46,28,1,4,0,1137,4db2f0754809c5844092b43be12780d7
4,59,82,28,3,4,0,1603,4db2f0754809c5844092b43be12780d7
4,60,55,55,4,3,0,1391,4db2f0754809c5844092b43be12780d7
4,61,19,64,2,1,0,1042,4db2f0754809c5844092b43be12780d7
4,62,19,73,2,2,1,859,4db2f0754809c5844092b43be12780d7
4,63,82,19,3,3,1,1321,4db2f0754809c5844092b43be12780d7
4,64,19,28,1,2,0,1245,4db2f0754809c5844092b43be12780d7
4,65,28,91,2,2,1,1450,4db2f0754809c5844092b43be12780d7
4,66,91,28,3,4,0,1320,4db2f0754809c5844092b43be12780d7
4,67,55,73,4,4,1,793,4db2f0754809c5844092b43be12780d7
4,68,91,91,4,3,0,755,4db2f0754809c5844092b43be12780d7
4,69,28,73,2,2,1,1605,4db2f0754809c5844092b43be12780d7
4,70,82,82,4,3,0,1446,4db2f0754809c5844092b43be12780d7
4,71,10,28,1,1,1,1003,4db2f0754809c5844092b43be12780d7
4,72,10,91,2,1,0,946,4db2f0754809c5844092b43be12780d7
4,73,19,10,1,2,0,1516,4db2f0754809c5844092b43be12780d7
4,74,10,37,1,1,1,1145,4db2f0754809c5844092b43be12780d7
4,75,73,73,4,3,0,1450,4db2f0754809c5844092b43be12780d7
4,76,82,73,4,4,1,997,4db2f0754809c5844092b43be12780d7
4,77,91,82,4,3,0,1083,4db2f0754809c5844092b43be12780d7
4,78,10,82,2,2,1,1501,4db2f0754809c5844092b43be12780d7
4,79,82,91,4,4,1,1120,4db2f0754809c5844092b43be12780d7
4,80,10,10,1,1,1,1102,4db2f0754809c5844092b43be12780d7
4,81,73,19,3,3,1,1337,4db2f0754809c5844092b43be12780d7
4,82,55,82,4,3,0,998,4db2f0754809c5844092b43be12780d7
4,83,91,55,4,4,1,2341,4db2f0754809c5844092b43be12780d7
4,84,91,64,4,4,1,1444,4db2f0754809c5844092b43be12780d7
4,85,64,28,3,3,1,933,4db2f0754809c5844092b43be12780d7
4,86,73,37,3,3,1,1207,4db2f0754809c5844092b43be12780d7
4,87,46,10,1,3,0,1655,4db2f0754809c5844092b43be12780d7
4,88,64,10,3,2,0,1784,4db2f0754809c5844092b43be12780d7
4,89,28,55,2,2,1,1527,4db2f0754809c5844092b43be12780d7
4,90,37,91,2,2,1,1004,4db2f0754809c5844092b43be12780d7
4,91,37,55,2,2,1,1278,4db2f0754809c5844092b43be12780d7
4,92,55,19,3,2,0,1175,4db2f0754809c5844092b43be12780d7
4,93,73,10,3,4,0,1246,4db2f0754809c5844092b43be12780d7
4,94,28,46,1,1,1,1059,4db2f0754809c5844092b43be12780d7
4,95,91,46,3,4,0,1330,4db2f0754809c5844092b43be12780d7
4,96,64,37,3,2,0,1507,4db2f0754809c5844092b43be12780d7
4,97,19,46,1,1,1,1139,4db2f0754809c5844092b43be12780d7
4,98,28,82,2,2,1,1864,4db2f0754809c5844092b43be12780d7
4,99,19,37,1,2,0,1031,4db2f0754809c5844092b43be12780d7
4,100,46,10,1,2,0,6015,4db2f0754809c5844092b43be12780d7
4,101,91,28,3,4,0,1172,4db2f0754809c5844092b43be12780d7
4,102,73,46,3,3,1,858,4db2f0754809c5844092b43be12780d7
4,103,46,46,1,2,0,912,4db2f0754809c5844092b43be12780d7
4,104,10,19,1,1,1,733,4db2f0754809c5844092b43be12780d7
4,105,64,73,4,3,0,1111,4db2f0754809c5844092b43be12780d7
4,106,10,64,2,2,1,943,4db2f0754809c5844092b43be12780d7
4,107,91,10,3,3,1,1078,4db2f0754809c5844092b43be12780d7
4,108,82,37,3,4,0,5321,4db2f0754809c5844092b43be12780d7
4,109,37,82,2,3,0,952,4db2f0754809c5844092b43be12780d7
4,110,19,10,1,1,1,564,4db2f0754809c5844092b43be12780d7
4,111,55,73,4,4,1,1230,4db2f0754809c5844092b43be12780d7
4,112,73,91,4,4,1,941,4db2f0754809c5844092b43be12780d7
4,113,55,91,4,3,0,849,4db2f0754809c5844092b43be12780d7
4,114,55,28,3,3,1,903,4db2f0754809c5844092b43be12780d7
4,115,55,19,3,3,1,699,4db2f0754809c5844092b43be12780d7
4,116,64,82,4,4,1,1074,4db2f0754809c5844092b43be12780d7
4,117,73,55,4,4,1,1256,4db2f0754809c5844092b43be12780d7
4,118,82,91,4,4,1,1018,4db2f0754809c5844092b43be12780d7
4,119,19,46,1,2,0,805,4db2f0754809c5844092b43be12780d7
4,120,82,28,3,3,1,1353,4db2f0754809c5844092b43be12780d7
4,121,19,28,1,1,1,1202,4db2f0754809c5844092b43be12780d7
4,122,37,10,1,1,1,1214,4db2f0754809c5844092b43be12780d7
4,123,37,55,2,2,1,946,4db2f0754809c5844092b43be12780d7
4,124,46,73,2,2,1,935,4db2f0754809c5844092b43be12780d7
4,125,91,37,3,4,0,1362,4db2f0754809c5844092b43be12780d7
4,126,28,37,1,1,1,1004,4db2f0754809c5844092b43be12780d7
4,127,19,19,1,1,1,1033,4db2f0754809c5844092b43be12780d7
4,128,82,55,4,3,0,1452,4db2f0754809c5844092b43be12780d7
4,129,64,10,3,4,0,825,4db2f0754809c5844092b43be12780d7
4,130,55,55,4,3,0,933,4db2f0754809c5844092b43be12780d7
4,131,28,19,1,2,0,1043,4db2f0754809c5844092b43be12780d7
4,132,82,73,4,4,1,991,4db2f0754809c5844092b43be12780d7
4,133,28,55,2,1,0,1737,4db2f0754809c5844092b43be12780d7
4,134,37,73,2,2,1,824,4db2f0754809c5844092b43be12780d7
4,135,64,46,3,3,1,1118,4db2f0754809c5844092b43be12780d7
4,136,73,73,4,3,0,930,4db2f0754809c5844092b43be12780d7
4,137,64,91,4,4,1,914,4db2f0754809c5844092b43be12780d7
4,138,37,46,1,2,0,1492,4db2f0754809c5844092b43be12780d7
4,139,64,55,4,3,0,1041,4db2f0754809c5844092b43be12780d7
4,140,10,28,1,1,1,903,4db2f0754809c5844092b43be12780d7
4,141,37,64,2,1,0,1002,4db2f0754809c5844092b43be12780d7
4,142,55,64,4,2,0,968,4db2f0754809c5844092b43be12780d7
4,143,64,37,3,4,0,1238,4db2f0754809c5844092b43be12780d7
4,144,28,28,1,3,0,790,4db2f0754809c5844092b43be12780d7
4,145,19,91,2,2,1,1008,4db2f0754809c5844092b43be12780d7
4,146,82,19,3,3,1,1165,4db2f0754809c5844092b43be12780d7
4,147,46,64,2,3,0,1266,4db2f0754809c5844092b43be12780d7
4,148,91,91,4,4,1,1023,4db2f0754809c5844092b43be12780d7
4,149,46,37,1,3,0,883,4db2f0754809c5844092b43be12780d7
4,150,55,10,3,2,0,879,4db2f0754809c5844092b43be12780d7
4,151,10,82,2,1,0,863,4db2f0754809c5844092b43be12780d7
4,152,46,91,2,2,1,968,4db2f0754809c5844092b43be12780d7
4,153,55,46,3,2,0,801,4db2f0754809c5844092b43be12780d7
4,154,73,10,3,4,0,1249,4db2f0754809c5844092b43be12780d7
4,155,55,82,4,2,0,1304,4db2f0754809c5844092b43be12780d7
4,156,19,73,2,1,0,920,4db2f0754809c5844092b43be12780d7
4,157,28,91,2,2,1,861,4db2f0754809c5844092b43be12780d7
4,158,64,28,3,3,1,1162,4db2f0754809c5844092b43be12780d7
4,159,10,46,1,1,1,1095,4db2f0754809c5844092b43be12780d7
4,160,10,73,2,2,1,1190,4db2f0754809c5844092b43be12780d7
4,161,91,19,3,3,1,1250,4db2f0754809c5844092b43be12780d7
4,162,28,46,1,2,0,1009,4db2f0754809c5844092b43be12780d7
4,163,28,10,1,2,0,923,4db2f0754809c5844092b43be12780d7
4,164,10,10,1,1,1,783,4db2f0754809c5844092b43be12780d7
4,165,73,82,4,3,0,1313,4db2f0754809c5844092b43be12780d7
4,166,10,55,2,2,1,915,4db2f0754809c5844092b43be12780d7
4,167,55,37,3,3,1,1014,4db2f0754809c5844092b43be12780d7
4,168,19,82,2,1,0,1426,4db2f0754809c5844092b43be12780d7
4,169,37,91,2,2,1,932,4db2f0754809c5844092b43be12780d7
4,170,73,37,3,4,0,1048,4db2f0754809c5844092b43be12780d7
4,171,91,64,4,4,1,714,4db2f0754809c5844092b43be12780d7
4,172,73,19,3,3,1,938,4db2f0754809c5844092b43be12780d7
4,173,91,82,4,4,1,1017,4db2f0754809c5844092b43be12780d7
4,174,82,46,3,3,1,1039,4db2f0754809c5844092b43be12780d7
4,175,82,10,3,3,1,799,4db2f0754809c5844092b43be12780d7
4,176,46,19,1,2,0,1026,4db2f0754809c5844092b43be12780d7
4,177,82,82,4,3,0,1103,4db2f0754809c5844092b43be12780d7
4,178,10,91,2,1,0,1051,4db2f0754809c5844092b43be12780d7
4,179,10,37,1,2,0,906,4db2f0754809c5844092b43be12780d7
4,180,37,19,1,2,0,1471,4db2f0754809c5844092b43be12780d7
4,181,91,55,4,4,1,1469,4db2f0754809c5844092b43be12780d7
4,182,19,37,1,2,0,1578,4db2f0754809c5844092b43be12780d7
4,183,82,64,4,3,0,1229,4db2f0754809c5844092b43be12780d7
4,184,19,64,2,1,0,1007,4db2f0754809c5844092b43be12780d7
4,185,46,55,2,3,0,1551,4db2f0754809c5844092b43be12780d7
4,186,37,28,1,2,0,804,4db2f0754809c5844092b43be12780d7
4,187,64,64,4,3,0,959,4db2f0754809c5844092b43be12780d7
4,188,28,64,2,2,1,1310,4db2f0754809c5844092b43be12780d7
4,189,46,28,1,2,0,864,4db2f0754809c5844092b43be12780d7
4,190,73,28,3,3,1,1400,4db2f0754809c5844092b43be12780d7
4,191,91,73,4,4,1,993,4db2f0754809c5844092b43be12780d7
4,192,46,82,2,3,0,1191,4db2f0754809c5844092b43be12780d7
4,193,28,73,2,1,0,1272,4db2f0754809c5844092b43be12780d7
4,194,64,19,3,3,1,1052,4db2f0754809c5844092b43be12780d7
4,195,28,82,2,2,1,763,4db2f0754809c5844092b43be12780d7
4,196,91,46,3,4,0,1062,4db2f0754809c5844092b43be12780d7
4,197,73,64,4,3,0,1249,4db2f0754809c5844092b43be12780d7
4,198,37,37,1,2,0,2073,4db2f0754809c5844092b43be12780d7
4,199,19,55,2,1,0,909,4db2f0754809c5844092b43be12780d7
4,200,10,19,1,2,0,1029,4db2f0754809c5844092b43be12780d7
4,201,55,10,3,3,1,1271,4db2f0754809c5844092b43be12780d7
4,202,37,19,1,3,0,973,4db2f0754809c5844092b43be12780d7
4,203,55,46,3,3,1,1045,4db2f0754809c5844092b43be12780d7
4,204,91,28,3,4,0,932,4db2f0754809c5844092b43be12780d7
4,205,64,91,4,4,1,1582,4db2f0754809c5844092b43be12780d7
4,206,10,46,1,2,0,980,4db2f0754809c5844092b43be12780d7
4,206,10,46,1,2,0,980,4db2f0754809c5844092b43be12780d7
4,207,73,64,4,3,0,1098,4db2f0754809c5844092b43be12780d7
4,208,82,46,3,4,0,948,4db2f0754809c5844092b43be12780d7
4,209,73,37,3,4,0,1142,4db2f0754809c5844092b43be12780d7
4,210,73,10,3,3,1,757,4db2f0754809c5844092b43be12780d7
4,211,91,55,4,4,1,1053,4db2f0754809c5844092b43be12780d7
4,212,10,91,2,1,0,1136,4db2f0754809c5844092b43be12780d7
4,213,46,55,2,1,0,1865,4db2f0754809c5844092b43be12780d7
4,214,82,10,3,3,1,1330,4db2f0754809c5844092b43be12780d7
4,215,28,73,2,2,1,1203,4db2f0754809c5844092b43be12780d7
4,216,91,73,4,4,1,896,4db2f0754809c5844092b43be12780d7
4,217,64,19,3,3,1,1054,4db2f0754809c5844092b43be12780d7
4,218,82,82,4,3,0,949,4db2f0754809c5844092b43be12780d7
4,219,91,82,4,4,1,691,4db2f0754809c5844092b43be12780d7
4,220,64,37,3,4,0,1470,4db2f0754809c5844092b43be12780d7
4,221,73,82,4,4,1,1583,4db2f0754809c5844092b43be12780d7
4,222,28,91,2,2,1,842,4db2f0754809c5844092b43be12780d7
4,223,28,37,1,1,1,931,4db2f0754809c5844092b43be12780d7
4,224,64,82,4,2,0,1104,4db2f0754809c5844092b43be12780d7
4,225,55,37,3,3,1,1054,4db2f0754809c5844092b43be12780d7
4,226,19,37,1,2,0,1023,4db2f0754809c5844092b43be12780d7
4,227,55,91,4,2,0,845,4db2f0754809c5844092b43be12780d7
4,228,82,91,4,4,1,936,4db2f0754809c5844092b43be12780d7
4,229,28,55,2,1,0,1353,4db2f0754809c5844092b43be12780d7
4,230,19,64,2,2,1,589,4db2f0754809c5844092b43be12780d7
4,231,28,19,1,2,0,578,4db2f0754809c5844092b43be12780d7
4,232,91,91,4,4,1,1375,4db2f0754809c5844092b43be12780d7
4,233,82,28,3,3,1,1182,4db2f0754809c5844092b43be12780d7
4,234,28,64,2,2,1,1881,4db2f0754809c5844092b43be12780d7
4,235,10,10,1,1,1,937,4db2f0754809c5844092b43be12780d7
4,236,28,82,2,2,1,1114,4db2f0754809c5844092b43be12780d7
4,237,37,37,1,2,0,2134,4db2f0754809c5844092b43be12780d7
4,238,10,64,2,2,1,816,4db2f0754809c5844092b43be12780d7
4,239,19,73,2,2,1,1136,4db2f0754809c5844092b43be12780d7
4,240,10,73,2,2,1,812,4db2f0754809c5844092b43be12780d7
4,241,10,37,1,1,1,875,4db2f0754809c5844092b43be12780d7
4,242,73,19,3,3,1,1615,4db2f0754809c5844092b43be12780d7
4,243,28,28,1,3,0,644,4db2f0754809c5844092b43be12780d7
4,244,64,46,3,4,0,1005,4db2f0754809c5844092b43be12780d7
4,245,91,64,4,3,0,1129,4db2f0754809c5844092b43be12780d7
4,246,37,10,1,2,0,1383,4db2f0754809c5844092b43be12780d7
4,247,19,19,1,1,1,1370,4db2f0754809c5844092b43be12780d7
4,248,19,55,2,2,1,1405,4db2f0754809c5844092b43be12780d7
4,249,64,28,3,3,1,1645,4db2f0754809c5844092b43be12780d7
4,250,37,82,2,4,0,757,4db2f0754809c5844092b43be12780d7
4,251,73,73,4,3,0,1167,4db2f0754809c5844092b43be12780d7
4,252,10,82,2,2,1,1295,4db2f0754809c5844092b43be12780d7
4,253,37,64,2,2,1,857,4db2f0754809c5844092b43be12780d7
4,254,64,10,3,3,1,1139,4db2f0754809c5844092b43be12780d7
4,255,55,55,4,4,1,1198,4db2f0754809c5844092b43be12780d7
4,256,46,37,1,3,0,1744,4db2f0754809c5844092b43be12780d7
4,257,55,28,3,3,1,1597,4db2f0754809c5844092b43be12780d7
4,258,82,37,3,4,0,936,4db2f0754809c5844092b43be12780d7
4,259,46,46,1,3,0,922,4db2f0754809c5844092b43be12780d7
4,260,73,55,4,3,0,777,4db2f0754809c5844092b43be12780d7
4,261,37,55,2,2,1,1036,4db2f0754809c5844092b43be12780d7
4,262,73,91,4,4,1,1277,4db2f0754809c5844092b43be12780d7
4,263,19,46,1,1,1,1477,4db2f0754809c5844092b43be12780d7
4,264,10,55,2,1,0,1027,4db2f0754809c5844092b43be12780d7
4,265,55,73,4,3,0,1411,4db2f0754809c5844092b43be12780d7
4,266,37,28,1,2,0,1092,4db2f0754809c5844092b43be12780d7
4,267,73,46,3,4,0,1424,4db2f0754809c5844092b43be12780d7
4,268,82,64,4,3,0,767,4db2f0754809c5844092b43be12780d7
4,269,91,37,3,3,1,756,4db2f0754809c5844092b43be12780d7
4,270,46,28,1,2,0,1554,4db2f0754809c5844092b43be12780d7
4,271,19,28,1,1,1,1016,4db2f0754809c5844092b43be12780d7
4,272,37,91,2,2,1,1227,4db2f0754809c5844092b43be12780d7
4,273,64,55,4,3,0,1168,4db2f0754809c5844092b43be12780d7
4,274,19,10,1,1,1,1112,4db2f0754809c5844092b43be12780d7
4,275,55,64,4,3,0,1067,4db2f0754809c5844092b43be12780d7
4,276,37,73,2,3,0,1163,4db2f0754809c5844092b43be12780d7
4,277,28,46,1,2,0,976,4db2f0754809c5844092b43be12780d7
4,278,46,82,2,2,1,1384,4db2f0754809c5844092b43be12780d7
4,279,46,64,2,2,1,690,4db2f0754809c5844092b43be12780d7
4,280,19,82,2,2,1,909,4db2f0754809c5844092b43be12780d7
4,281,37,46,1,1,1,1197,4db2f0754809c5844092b43be12780d7
4,282,91,46,3,4,0,1768,4db2f0754809c5844092b43be12780d7
4,283,82,55,4,4,1,830,4db2f0754809c5844092b43be12780d7
4,284,91,10,3,3,1,884,4db2f0754809c5844092b43be12780d7
4,285,82,19,3,3,1,942,4db2f0754809c5844092b43be12780d7
4,286,64,73,4,4,1,1506,4db2f0754809c5844092b43be12780d7
4,287,19,91,2,1,0,1482,4db2f0754809c5844092b43be12780d7
4,288,82,73,4,3,0,1663,4db2f0754809c5844092b43be12780d7
4,289,28,10,1,1,1,1394,4db2f0754809c5844092b43be12780d7
4,290,46,91,2,2,1,1854,4db2f0754809c5844092b43be12780d7
4,291,73,28,3,3,1,1202,4db2f0754809c5844092b43be12780d7
4,292,46,19,1,3,0,1073,4db2f0754809c5844092b43be12780d7
4,293,46,73,2,2,1,1234,4db2f0754809c5844092b43be12780d7
4,294,55,82,4,3,0,1409,4db2f0754809c5844092b43be12780d7
4,295,91,19,3,3,1,1194,4db2f0754809c5844092b43be12780d7
4,296,46,10,1,1,1,2707,4db2f0754809c5844092b43be12780d7
4,297,64,64,4,3,0,1744,4db2f0754809c5844092b43be12780d7
4,298,55,19,3,4,0,1212,4db2f0754809c5844092b43be12780d7
4,299,10,28,1,2,0,1253,4db2f0754809c5844092b43be12780d7
4,300,28,64,2,2,1,1160,4db2f0754809c5844092b43be12780d7
4,301,73,46,3,4,0,1597,4db2f0754809c5844092b43be12780d7
4,302,10,55,2,2,1,5543,4db2f0754809c5844092b43be12780d7
4,303,64,55,4,4,1,1426,4db2f0754809c5844092b43be12780d7
4,304,55,19,3,3,1,1291,4db2f0754809c5844092b43be12780d7
4,305,46,28,1,3,0,1194,4db2f0754809c5844092b43be12780d7
4,306,19,37,1,2,0,1950,4db2f0754809c5844092b43be12780d7
4,307,55,46,3,3,1,1219,4db2f0754809c5844092b43be12780d7
4,308,82,64,4,4,1,852,4db2f0754809c5844092b43be12780d7
4,309,91,64,4,4,1,897,4db2f0754809c5844092b43be12780d7
4,310,55,91,4,3,0,1669,4db2f0754809c5844092b43be12780d7
4,311,19,64,2,2,1,1119,4db2f0754809c5844092b43be12780d7
4,312,55,10,3,1,0,1273,4db2f0754809c5844092b43be12780d7
4,313,46,37,1,3,0,1287,4db2f0754809c5844092b43be12780d7
4,314,82,73,4,4,1,1251,4db2f0754809c5844092b43be12780d7
4,315,19,82,2,3,0,1556,4db2f0754809c5844092b43be12780d7
4,316,91,55,4,3,0,1089,4db2f0754809c5844092b43be12780d7
4,317,55,28,3,3,1,1080,4db2f0754809c5844092b43be12780d7
4,318,46,82,2,3,0,906,4db2f0754809c5844092b43be12780d7
4,319,64,37,3,3,1,1073,4db2f0754809c5844092b43be12780d7
4,320,46,19,1,2,0,1220,4db2f0754809c5844092b43be12780d7
4,321,28,10,1,1,1,891,4db2f0754809c5844092b43be12780d7
4,322,82,46,3,3,1,1571,4db2f0754809c5844092b43be12780d7
4,323,82,19,3,4,0,1250,4db2f0754809c5844092b43be12780d7
4,324,10,82,2,2,1,1376,4db2f0754809c5844092b43be12780d7
4,325,73,55,4,3,0,1454,4db2f0754809c5844092b43be12780d7
4,326,82,28,3,4,0,971,4db2f0754809c5844092b43be12780d7
4,327,73,82,4,4,1,711,4db2f0754809c5844092b43be12780d7
4,328,37,82,2,4,0,626,4db2f0754809c5844092b43be12780d7
4,329,91,91,4,4,1,974,4db2f0754809c5844092b43be12780d7
4,330,73,10,3,3,1,1300,4db2f0754809c5844092b43be12780d7
4,331,37,73,2,2,1,1333,4db2f0754809c5844092b43be12780d7
4,332,91,37,3,3,1,1344,4db2f0754809c5844092b43be12780d7
4,333,64,64,4,1,0,2484,4db2f0754809c5844092b43be12780d7
4,334,55,55,4,3,0,1242,4db2f0754809c5844092b43be12780d7
4,335,28,91,2,2,1,2215,4db2f0754809c5844092b43be12780d7
4,336,91,82,4,4,1,1353,4db2f0754809c5844092b43be12780d7
4,337,28,82,2,2,1,1629,4db2f0754809c5844092b43be12780d7
4,338,82,55,4,3,0,1314,4db2f0754809c5844092b43be12780d7
4,339,73,73,4,3,0,1209,4db2f0754809c5844092b43be12780d7
4,340,91,73,4,4,1,749,4db2f0754809c5844092b43be12780d7
4,341,55,64,4,4,1,850,4db2f0754809c5844092b43be12780d7
4,342,46,91,2,2,1,1061,4db2f0754809c5844092b43be12780d7
4,343,91,19,3,3,1,2053,4db2f0754809c5844092b43be12780d7
4,344,91,28,3,3,1,1267,4db2f0754809c5844092b43be12780d7
4,345,10,91,2,2,1,1570,4db2f0754809c5844092b43be12780d7
4,346,28,37,1,1,1,1514,4db2f0754809c5844092b43be12780d7
4,347,91,46,3,3,1,1113,4db2f0754809c5844092b43be12780d7
4,348,55,37,3,2,0,2033,4db2f0754809c5844092b43be12780d7
4,349,19,28,1,2,0,1285,4db2f0754809c5844092b43be12780d7
4,350,82,82,4,4,1,1199,4db2f0754809c5844092b43be12780d7
4,351,73,91,4,4,1,1276,4db2f0754809c5844092b43be12780d7
4,352,64,91,4,4,1,769,4db2f0754809c5844092b43be12780d7
4,353,64,46,3,3,1,1294,4db2f0754809c5844092b43be12780d7
4,354,19,19,1,1,1,1384,4db2f0754809c5844092b43be12780d7
4,355,73,19,3,3,1,2515,4db2f0754809c5844092b43be12780d7
4,356,10,28,1,1,1,1255,4db2f0754809c5844092b43be12780d7
4,357,73,28,3,4,0,2127,4db2f0754809c5844092b43be12780d7
4,358,28,55,2,3,0,1034,4db2f0754809c5844092b43be12780d7
4,359,46,55,2,2,1,1753,4db2f0754809c5844092b43be12780d7
4,360,37,91,2,2,1,1838,4db2f0754809c5844092b43be12780d7
4,361,82,10,3,3,1,1547,4db2f0754809c5844092b43be12780d7
4,362,55,82,4,2,0,1955,4db2f0754809c5844092b43be12780d7
4,363,10,73,2,2,1,1714,4db2f0754809c5844092b43be12780d7
4,364,28,28,1,1,1,1179,4db2f0754809c5844092b43be12780d7
4,365,19,55,2,2,1,1201,4db2f0754809c5844092b43be12780d7
4,366,46,46,1,3,0,1497,4db2f0754809c5844092b43be12780d7
4,367,10,37,1,1,1,2377,4db2f0754809c5844092b43be12780d7
4,368,10,19,1,1,1,720,4db2f0754809c5844092b43be12780d7
4,368,10,19,1,1,1,720,4db2f0754809c5844092b43be12780d7
4,369,55,73,4,4,1,1355,4db2f0754809c5844092b43be12780d7
4,370,46,73,2,4,0,1054,4db2f0754809c5844092b43be12780d7
4,371,28,73,2,2,1,1028,4db2f0754809c5844092b43be12780d7
4,372,64,82,4,4,1,1878,4db2f0754809c5844092b43be12780d7
4,373,19,10,1,1,1,1256,4db2f0754809c5844092b43be12780d7
4,374,82,91,4,4,1,1112,4db2f0754809c5844092b43be12780d7
4,375,10,10,1,1,1,1334,4db2f0754809c5844092b43be12780d7
4,376,37,19,1,1,1,1469,4db2f0754809c5844092b43be12780d7
4,377,64,10,3,3,1,1233,4db2f0754809c5844092b43be12780d7
4,378,37,37,1,3,0,1125,4db2f0754809c5844092b43be12780d7
4,379,19,73,2,2,1,1889,4db2f0754809c5844092b43be12780d7
4,380,73,37,3,3,1,1462,4db2f0754809c5844092b43be12780d7
4,381,28,19,1,2,0,1104,4db2f0754809c5844092b43be12780d7
4,382,28,46,1,1,1,1210,4db2f0754809c5844092b43be12780d7
4,383,37,10,1,1,1,851,4db2f0754809c5844092b43be12780d7
4,384,64,28,3,3,1,1197,4db2f0754809c5844092b43be12780d7
4,385,37,46,1,3,0,869,4db2f0754809c5844092b43be12780d7
4,386,37,64,2,2,1,1413,4db2f0754809c5844092b43be12780d7
4,387,37,28,1,1,1,1223,4db2f0754809c5844092b43be12780d7
4,388,64,73,4,3,0,1228,4db2f0754809c5844092b43be12780d7
4,389,19,46,1,2,0,1601,4db2f0754809c5844092b43be12780d7
4,390,46,64,2,3,0,1443,4db2f0754809c5844092b43be12780d7
4,391,82,37,3,3,1,1532,4db2f0754809c5844092b43be12780d7
4,392,73,64,4,3,0,1055,4db2f0754809c5844092b43be12780d7
4,393,10,46,1,2,0,1364,4db2f0754809c5844092b43be12780d7
4,394,10,64,2,2,1,2188,4db2f0754809c5844092b43be12780d7
4,395,64,19,3,3,1,1169,4db2f0754809c5844092b43be12780d7
4,396,37,55,2,2,1,1507,4db2f0754809c5844092b43be12780d7
4,397,19,91,2,2,1,813,4db2f0754809c5844092b43be12780d7
4,398,91,10,3,3,1,1362,4db2f0754809c5844092b43be12780d7
4,399,46,10,1,3,0,1318,4db2f0754809c5844092b43be12780d7
1,0,64,10,1,3,9999,12358,b63cbc20b61914bd378ae347b8a9a768
1,1,46,37,1,3,9999,1515,b63cbc20b61914bd378ae347b8a9a768
1,2,91,37,1,4,9999,3926,b63cbc20b61914bd378ae347b8a9a768
1,3,10,10,1,2,9999,5751,b63cbc20b61914bd378ae347b8a9a768
1,4,37,19,1,6,9999,2673,b63cbc20b61914bd378ae347b8a9a768
1,5,91,19,1,1,9999,1047,b63cbc20b61914bd378ae347b8a9a768
1,6,82,46,1,3,9999,4294,b63cbc20b61914bd378ae347b8a9a768
1,7,55,64,1,4,9999,3007,b63cbc20b61914bd378ae347b8a9a768
1,8,10,55,1,3,9999,1818,b63cbc20b61914bd378ae347b8a9a768
1,9,64,46,1,1,9999,1450,b63cbc20b61914bd378ae347b8a9a768
1,10,19,64,1,3,9999,1622,b63cbc20b61914bd378ae347b8a9a768
1,11,82,28,1,2,9999,1496,b63cbc20b61914bd378ae347b8a9a768
1,12,28,73,1,2,9999,1601,b63cbc20b61914bd378ae347b8a9a768
1,13,64,73,1,3,9999,2558,b63cbc20b61914bd378ae347b8a9a768
1,14,55,28,1,5,9999,2321,b63cbc20b61914bd378ae347b8a9a768
1,15,28,82,1,3,9999,2540,b63cbc20b61914bd378ae347b8a9a768
1,16,46,82,1,4,9999,2684,b63cbc20b61914bd378ae347b8a9a768
1,17,55,19,1,5,9999,2262,b63cbc20b61914bd378ae347b8a9a768
1,18,55,91,1,6,9999,2418,b63cbc20b61914bd378ae347b8a9a768
1,19,55,73,1,7,9999,2187,b63cbc20b61914bd378ae347b8a9a768
1,20,19,55,1,4,9999,1812,b63cbc20b61914bd378ae347b8a9a768
1,21,73,37,1,2,9999,3225,b63cbc20b61914bd378ae347b8a9a768
1,22,64,82,1,6,9999,1687,b63cbc20b61914bd378ae347b8a9a768
1,23,46,55,1,6,9999,1715,b63cbc20b61914bd378ae347b8a9a768
1,24,82,19,1,3,9999,1394,b63cbc20b61914bd378ae347b8a9a768
1,25,91,64,1,6,9999,2418,b63cbc20b61914bd378ae347b8a9a768
1,26,37,46,1,3,9999,2687,b63cbc20b61914bd378ae347b8a9a768
1,27,91,73,1,1,9999,1225,b63cbc20b61914bd378ae347b8a9a768
1,28,10,73,1,1,9999,1114,b63cbc20b61914bd378ae347b8a9a768
1,29,73,64,1,5,9999,2446,b63cbc20b61914bd378ae347b8a9a768
1,30,46,10,1,4,9999,1888,b63cbc20b61914bd378ae347b8a9a768
1,31,19,28,1,2,9999,1408,b63cbc20b61914bd378ae347b8a9a768
1,32,46,46,1,6,9999,3155,b63cbc20b61914bd378ae347b8a9a768
1,33,10,19,1,3,9999,2040,b63cbc20b61914bd378ae347b8a9a768
1,34,46,64,1,6,9999,1624,b63cbc20b61914bd378ae347b8a9a768
1,35,46,91,1,8,9999,1452,b63cbc20b61914bd378ae347b8a9a768
1,36,91,55,1,1,9999,2314,b63cbc20b61914bd378ae347b8a9a768
1,37,55,82,1,5,9999,2759,b63cbc20b61914bd378ae347b8a9a768
1,38,91,28,1,7,9999,1619,b63cbc20b61914bd378ae347b8a9a768
1,39,55,46,1,3,9999,1166,b63cbc20b61914bd378ae347b8a9a768
1,40,91,82,1,2,9999,2855,b63cbc20b61914bd378ae347b8a9a768
1,41,10,28,1,1,9999,684,b63cbc20b61914bd378ae347b8a9a768
1,42,28,55,1,5,9999,3744,b63cbc20b61914bd378ae347b8a9a768
1,43,28,46,1,8,9999,1406,b63cbc20b61914bd378ae347b8a9a768
1,44,55,55,1,6,9999,1994,b63cbc20b61914bd378ae347b8a9a768
1,45,55,37,1,8,9999,1568,b63cbc20b61914bd378ae347b8a9a768
1,46,64,91,1,6,9999,1726,b63cbc20b61914bd378ae347b8a9a768
1,47,19,19,1,4,9999,1677,b63cbc20b61914bd378ae347b8a9a768
1,48,82,55,1,1,9999,1363,b63cbc20b61914bd378ae347b8a9a768
1,49,28,37,1,6,9999,1767,b63cbc20b61914bd378ae347b8a9a768
1,50,10,91,1,3,9999,1896,b63cbc20b61914bd378ae347b8a9a768
1,51,37,28,1,5,9999,2253,b63cbc20b61914bd378ae347b8a9a768
1,52,10,82,1,7,9999,2478,b63cbc20b61914bd378ae347b8a9a768
1,53,82,64,1,1,9999,1308,b63cbc20b61914bd378ae347b8a9a768
1,54,37,64,1,4,9999,2245,b63cbc20b61914bd378ae347b8a9a768
1,55,37,91,1,8,9999,1503,b63cbc20b61914bd378ae347b8a9a768
1,56,19,91,1,8,9999,1170,b63cbc20b61914bd378ae347b8a9a768
1,57,19,46,1,6,9999,1916,b63cbc20b61914bd378ae347b8a9a768
1,58,19,10,1,5,9999,1722,b63cbc20b61914bd378ae347b8a9a768
1,59,82,10,1,1,9999,1332,b63cbc20b61914bd378ae347b8a9a768
1,60,91,46,1,6,9999,3447,b63cbc20b61914bd378ae347b8a9a768
1,61,37,10,1,1,9999,1355,b63cbc20b61914bd378ae347b8a9a768
1,62,46,19,1,8,9999,1137,b63cbc20b61914bd378ae347b8a9a768
1,63,73,73,1,1,9999,1655,b63cbc20b61914bd378ae347b8a9a768
1,64,10,64,1,1,9999,968,b63cbc20b61914bd378ae347b8a9a768
1,65,64,55,1,1,9999,1240,b63cbc20b61914bd378ae347b8a9a768
1,66,46,28,1,6,9999,1627,b63cbc20b61914bd378ae347b8a9a768
1,67,28,10,1,8,9999,1107,b63cbc20b61914bd378ae347b8a9a768
1,68,73,10,1,1,9999,2418,b63cbc20b61914bd378ae347b8a9a768
1,69,91,10,1,8,9999,1980,b63cbc20b61914bd378ae347b8a9a768
1,70,28,91,1,1,9999,1366,b63cbc20b61914bd378ae347b8a9a768
1,71,19,73,1,8,9999,1284,b63cbc20b61914bd378ae347b8a9a768
1,72,10,46,1,8,9999,762,b63cbc20b61914bd378ae347b8a9a768
1,73,82,73,1,1,9999,1045,b63cbc20b61914bd378ae347b8a9a768
1,74,82,82,1,7,9999,2152,b63cbc20b61914bd378ae347b8a9a768
1,75,37,73,1,3,9999,2123,b63cbc20b61914bd378ae347b8a9a768
1,76,73,19,1,3,9999,2645,b63cbc20b61914bd378ae347b8a9a768
1,77,46,73,1,3,9999,3165,b63cbc20b61914bd378ae347b8a9a768
1,78,64,37,1,4,9999,1527,b63cbc20b61914bd378ae347b8a9a768
1,79,82,37,1,4,9999,3244,b63cbc20b61914bd378ae347b8a9a768
1,80,28,19,1,2,9999,2100,b63cbc20b61914bd378ae347b8a9a768
1,81,73,82,1,4,9999,1605,b63cbc20b61914bd378ae347b8a9a768
1,82,73,55,1,7,9999,1480,b63cbc20b61914bd378ae347b8a9a768
1,83,91,91,1,8,9999,1050,b63cbc20b61914bd378ae347b8a9a768
1,84,19,37,1,1,9999,1152,b63cbc20b61914bd378ae347b8a9a768
1,85,10,37,1,7,9999,1388,b63cbc20b61914bd378ae347b8a9a768
1,86,64,19,1,4,9999,1542,b63cbc20b61914bd378ae347b8a9a768
1,87,37,37,1,5,9999,1676,b63cbc20b61914bd378ae347b8a9a768
1,88,64,28,1,4,9999,1696,b63cbc20b61914bd378ae347b8a9a768
1,89,28,28,1,3,9999,2080,b63cbc20b61914bd378ae347b8a9a768
1,90,55,10,1,6,9999,2473,b63cbc20b61914bd378ae347b8a9a768
1,91,37,55,1,7,9999,1223,b63cbc20b61914bd378ae347b8a9a768
1,92,73,46,1,4,9999,2293,b63cbc20b61914bd378ae347b8a9a768
1,93,37,82,1,3,9999,1296,b63cbc20b61914bd378ae347b8a9a768
1,94,19,82,1,4,9999,1747,b63cbc20b61914bd378ae347b8a9a768
1,95,82,91,1,1,9999,828,b63cbc20b61914bd378ae347b8a9a768
1,96,73,28,1,3,9999,2006,b63cbc20b61914bd378ae347b8a9a768
1,97,73,91,1,6,9999,1892,b63cbc20b61914bd378ae347b8a9a768
1,98,28,64,1,4,9999,1454,b63cbc20b61914bd378ae347b8a9a768
1,99,64,64,1,4,9999,2062,b63cbc20b61914bd378ae347b8a9a768
1,100,73,91,1,5,9999,3252,b63cbc20b61914bd378ae347b8a9a768
1,101,28,73,1,3,9999,1288,b63cbc20b61914bd378ae347b8a9a768
1,102,82,37,1,4,9999,4226,b63cbc20b61914bd378ae347b8a9a768
1,103,73,73,1,8,9999,1353,b63cbc20b61914bd378ae347b8a9a768
1,104,55,73,1,5,9999,1854,b63cbc20b61914bd378ae347b8a9a768
1,105,46,91,1,7,9999,1328,b63cbc20b61914bd378ae347b8a9a768
1,106,82,73,1,3,9999,1444,b63cbc20b61914bd378ae347b8a9a768
1,107,82,19,1,4,9999,2099,b63cbc20b61914bd378ae347b8a9a768
1,108,91,64,1,7,9999,1251,b63cbc20b61914bd378ae347b8a9a768
1,109,37,46,1,3,9999,1518,b63cbc20b61914bd378ae347b8a9a768
1,110,82,10,1,2,9999,2748,b63cbc20b61914bd378ae347b8a9a768
1,111,91,82,1,6,9999,1736,b63cbc20b61914bd378ae347b8a9a768
1,112,37,73,1,3,9999,1598,b63cbc20b61914bd378ae347b8a9a768
1,113,91,19,1,4,9999,2035,b63cbc20b61914bd378ae347b8a9a768
1,114,55,82,1,2,9999,1274,b63cbc20b61914bd378ae347b8a9a768
1,115,73,82,1,7,9999,1405,b63cbc20b61914bd378ae347b8a9a768
1,116,91,46,1,8,9999,1988,b63cbc20b61914bd378ae347b8a9a768
1,117,37,37,1,4,9999,1647,b63cbc20b61914bd378ae347b8a9a768
1,118,46,82,1,8,9999,1251,b63cbc20b61914bd378ae347b8a9a768
1,119,73,19,1,4,9999,2218,b63cbc20b61914bd378ae347b8a9a768
1,120,19,37,1,1,9999,882,b63cbc20b61914bd378ae347b8a9a768
1,121,73,55,1,4,9999,2602,b63cbc20b61914bd378ae347b8a9a768
1,122,37,10,1,3,9999,2385,b63cbc20b61914bd378ae347b8a9a768
1,123,19,46,1,7,9999,1669,b63cbc20b61914bd378ae347b8a9a768
1,124,73,46,1,2,9999,2514,b63cbc20b61914bd378ae347b8a9a768
1,125,46,73,1,3,9999,2449,b63cbc20b61914bd378ae347b8a9a768
1,126,82,28,1,1,9999,1562,b63cbc20b61914bd378ae347b8a9a768
1,127,10,19,1,1,9999,796,b63cbc20b61914bd378ae347b8a9a768
1,128,73,28,1,1,9999,686,b63cbc20b61914bd378ae347b8a9a768
1,129,28,64,1,6,9999,1796,b63cbc20b61914bd378ae347b8a9a768
1,130,19,28,1,8,9999,1224,b63cbc20b61914bd378ae347b8a9a768
1,131,10,82,1,8,9999,1038,b63cbc20b61914bd378ae347b8a9a768
1,132,46,64,1,7,9999,1491,b63cbc20b61914bd378ae347b8a9a768
1,133,28,28,1,7,9999,2720,b63cbc20b61914bd378ae347b8a9a768
1,134,55,55,1,4,9999,1511,b63cbc20b61914bd378ae347b8a9a768
1,135,55,37,1,8,9999,1590,b63cbc20b61914bd378ae347b8a9a768
1,136,37,91,1,7,9999,1234,b63cbc20b61914bd378ae347b8a9a768
1,137,64,64,1,5,9999,2003,b63cbc20b61914bd378ae347b8a9a768
1,138,37,64,1,3,9999,2645,b63cbc20b61914bd378ae347b8a9a768
1,139,91,73,1,1,9999,983,b63cbc20b61914bd378ae347b8a9a768
1,140,64,91,1,4,9999,1964,b63cbc20b61914bd378ae347b8a9a768
1,141,10,55,1,1,9999,772,b63cbc20b61914bd378ae347b8a9a768
1,142,82,91,1,1,9999,911,b63cbc20b61914bd378ae347b8a9a768
1,143,46,46,1,3,9999,1402,b63cbc20b61914bd378ae347b8a9a768
1,144,73,64,1,1,9999,1389,b63cbc20b61914bd378ae347b8a9a768
1,145,91,55,1,7,9999,1374,b63cbc20b61914bd378ae347b8a9a768
1,146,19,64,1,1,9999,1408,b63cbc20b61914bd378ae347b8a9a768
1,147,55,19,1,1,9999,1337,b63cbc20b61914bd378ae347b8a9a768
1,148,10,10,1,1,9999,1309,b63cbc20b61914bd378ae347b8a9a768
1,149,37,19,1,6,9999,3772,b63cbc20b61914bd378ae347b8a9a768
1,150,73,37,1,3,9999,1561,b63cbc20b61914bd378ae347b8a9a768
1,151,10,73,1,1,9999,724,b63cbc20b61914bd378ae347b8a9a768
1,152,55,28,1,2,9999,2430,b63cbc20b61914bd378ae347b8a9a768
1,153,28,55,1,6,9999,2063,b63cbc20b61914bd378ae347b8a9a768
1,154,28,19,1,7,9999,1185,b63cbc20b61914bd378ae347b8a9a768
1,155,10,91,1,7,9999,1341,b63cbc20b61914bd378ae347b8a9a768
1,156,64,46,1,2,9999,2003,b63cbc20b61914bd378ae347b8a9a768
1,157,64,10,1,6,9999,1797,b63cbc20b61914bd378ae347b8a9a768
1,158,46,28,1,8,9999,1447,b63cbc20b61914bd378ae347b8a9a768
1,159,82,55,1,7,9999,1232,b63cbc20b61914bd378ae347b8a9a768
1,160,73,10,1,7,9999,1415,b63cbc20b61914bd378ae347b8a9a768
1,161,19,19,1,1,9999,1375,b63cbc20b61914bd378ae347b8a9a768
1,162,46,19,1,6,9999,2117,b63cbc20b61914bd378ae347b8a9a768
1,163,28,46,1,8,9999,1456,b63cbc20b61914bd378ae347b8a9a768
1,164,64,73,1,2,9999,1806,b63cbc20b61914bd378ae347b8a9a768
1,165,37,82,1,7,9999,2510,b63cbc20b61914bd378ae347b8a9a768
1,166,46,10,1,8,9999,1194,b63cbc20b61914bd378ae347b8a9a768
1,167,91,28,1,1,9999,1100,b63cbc20b61914bd378ae347b8a9a768
1,168,19,91,1,1,9999,1019,b63cbc20b61914bd378ae347b8a9a768
1,169,28,91,1,1,9999,1983,b63cbc20b61914bd378ae347b8a9a768
1,170,46,55,1,6,9999,2383,b63cbc20b61914bd378ae347b8a9a768
1,171,46,37,1,7,9999,1527,b63cbc20b61914bd378ae347b8a9a768
1,172,10,64,1,1,9999,1109,b63cbc20b61914bd378ae347b8a9a768
1,173,82,64,1,1,9999,904,b63cbc20b61914bd378ae347b8a9a768
1,174,91,37,1,8,9999,1349,b63cbc20b61914bd378ae347b8a9a768
1,175,37,28,1,3,9999,2030,b63cbc20b61914bd378ae347b8a9a768
1,176,28,82,1,7,9999,1365,b63cbc20b61914bd378ae347b8a9a768
1,177,19,10,1,7,9999,2515,b63cbc20b61914bd378ae347b8a9a768
1,178,91,91,1,1,9999,1025,b63cbc20b61914bd378ae347b8a9a768
1,179,64,82,1,7,9999,1441,b63cbc20b61914bd378ae347b8a9a768
1,180,64,37,1,8,9999,928,b63cbc20b61914bd378ae347b8a9a768
1,181,82,82,1,8,9999,971,b63cbc20b61914bd378ae347b8a9a768
1,182,10,46,1,1,9999,1013,b63cbc20b61914bd378ae347b8a9a768
1,183,28,37,1,1,9999,1718,b63cbc20b61914bd378ae347b8a9a768
1,184,19,82,1,8,9999,1148,b63cbc20b61914bd378ae347b8a9a768
1,185,19,73,1,8,9999,867,b63cbc20b61914bd378ae347b8a9a768
1,186,19,55,1,8,9999,2055,b63cbc20b61914bd378ae347b8a9a768
1,187,91,10,1,1,9999,1238,b63cbc20b61914bd378ae347b8a9a768
1,188,10,28,1,1,9999,1506,b63cbc20b61914bd378ae347b8a9a768
1,189,37,55,1,3,9999,1999,b63cbc20b61914bd378ae347b8a9a768
1,190,64,19,1,2,9999,1454,b63cbc20b61914bd378ae347b8a9a768
1,191,10,37,1,1,9999,721,b63cbc20b61914bd378ae347b8a9a768
1,192,28,10,1,4,9999,1677,b63cbc20b61914bd378ae347b8a9a768
1,193,82,46,1,1,9999,987,b63cbc20b61914bd378ae347b8a9a768
1,194,55,91,1,3,9999,2939,b63cbc20b61914bd378ae347b8a9a768
1,195,64,55,1,6,9999,1308,b63cbc20b61914bd378ae347b8a9a768
1,196,55,64,1,8,9999,976,b63cbc20b61914bd378ae347b8a9a768
1,197,55,10,1,4,9999,2139,b63cbc20b61914bd378ae347b8a9a768
1,198,55,46,1,7,9999,1081,b63cbc20b61914bd378ae347b8a9a768
1,199,64,28,1,8,9999,1269,b63cbc20b61914bd378ae347b8a9a768
1,200,19,91,1,5,9999,2581,b63cbc20b61914bd378ae347b8a9a768
1,201,55,82,1,2,9999,2133,b63cbc20b61914bd378ae347b8a9a768
1,202,55,37,1,6,9999,2195,b63cbc20b61914bd378ae347b8a9a768
1,203,82,46,1,3,9999,1641,b63cbc20b61914bd378ae347b8a9a768
1,204,82,73,1,7,9999,1626,b63cbc20b61914bd378ae347b8a9a768
1,205,64,91,1,7,9999,1180,b63cbc20b61914bd378ae347b8a9a768
1,206,91,64,1,8,9999,1360,b63cbc20b61914bd378ae347b8a9a768
1,207,37,82,1,2,9999,1535,b63cbc20b61914bd378ae347b8a9a768
1,208,64,10,1,6,9999,1231,b63cbc20b61914bd378ae347b8a9a768
1,209,91,91,1,5,9999,2651,b63cbc20b61914bd378ae347b8a9a768
1,210,73,10,1,4,9999,2805,b63cbc20b61914bd378ae347b8a9a768
1,211,91,82,1,7,9999,1369,b63cbc20b61914bd378ae347b8a9a768
1,212,19,10,1,1,9999,1164,b63cbc20b61914bd378ae347b8a9a768
1,213,73,46,1,2,9999,2224,b63cbc20b61914bd378ae347b8a9a768
1,214,82,64,1,3,9999,2705,b63cbc20b61914bd378ae347b8a9a768
1,215,37,73,1,5,9999,2626,b63cbc20b61914bd378ae347b8a9a768
1,216,91,46,1,1,9999,1132,b63cbc20b61914bd378ae347b8a9a768
1,217,64,55,1,3,9999,2429,b63cbc20b61914bd378ae347b8a9a768
1,218,46,28,1,3,9999,2000,b63cbc20b61914bd378ae347b8a9a768
1,219,10,73,1,1,9999,988,b63cbc20b61914bd378ae347b8a9a768
1,220,64,28,1,3,9999,2823,b63cbc20b61914bd378ae347b8a9a768
1,221,10,64,1,1,9999,778,b63cbc20b61914bd378ae347b8a9a768
1,222,46,10,1,3,9999,2523,b63cbc20b61914bd378ae347b8a9a768
1,223,37,55,1,3,9999,3687,b63cbc20b61914bd378ae347b8a9a768
1,224,19,37,1,6,9999,1285,b63cbc20b61914bd378ae347b8a9a768
1,225,82,82,1,1,9999,878,b63cbc20b61914bd378ae347b8a9a768
1,226,28,19,1,3,9999,2207,b63cbc20b61914bd378ae347b8a9a768
1,227,10,46,1,7,9999,1552,b63cbc20b61914bd378ae347b8a9a768
1,228,64,82,1,3,9999,1547,b63cbc20b61914bd378ae347b8a9a768
1,229,91,73,1,4,9999,3288,b63cbc20b61914bd378ae347b8a9a768
1,230,19,82,1,2,9999,1561,b63cbc20b61914bd378ae347b8a9a768
1,231,46,46,1,2,9999,2292,b63cbc20b61914bd378ae347b8a9a768
1,232,46,55,1,6,9999,1265,b63cbc20b61914bd378ae347b8a9a768
1,233,28,37,1,6,9999,2540,b63cbc20b61914bd378ae347b8a9a768
1,234,91,37,1,1,9999,854,b63cbc20b61914bd378ae347b8a9a768
1,235,64,37,1,7,9999,1351,b63cbc20b61914bd378ae347b8a9a768
1,236,10,91,1,2,9999,885,b63cbc20b61914bd378ae347b8a9a768
1,237,37,91,1,6,9999,2508,b63cbc20b61914bd378ae347b8a9a768
1,238,19,28,1,7,9999,1157,b63cbc20b61914bd378ae347b8a9a768
1,239,55,46,1,3,9999,1573,b63cbc20b61914bd378ae347b8a9a768
1,240,73,19,1,2,9999,2809,b63cbc20b61914bd378ae347b8a9a768
1,241,55,28,1,7,9999,1329,b63cbc20b61914bd378ae347b8a9a768
1,242,19,19,1,2,9999,2627,b63cbc20b61914bd378ae347b8a9a768
1,243,28,82,1,7,9999,1349,b63cbc20b61914bd378ae347b8a9a768
1,244,10,55,1,6,9999,1815,b63cbc20b61914bd378ae347b8a9a768
1,245,37,37,1,5,9999,2895,b63cbc20b61914bd378ae347b8a9a768
1,246,28,91,1,7,9999,1172,b63cbc20b61914bd378ae347b8a9a768
1,247,46,91,1,4,9999,1216,b63cbc20b61914bd378ae347b8a9a768
1,248,10,82,1,5,9999,1484,b63cbc20b61914bd378ae347b8a9a768
1,249,55,55,1,3,9999,2103,b63cbc20b61914bd378ae347b8a9a768
1,250,73,37,1,2,9999,2011,b63cbc20b61914bd378ae347b8a9a768
1,251,37,28,1,4,9999,3203,b63cbc20b61914bd378ae347b8a9a768
1,252,82,37,1,4,9999,2156,b63cbc20b61914bd378ae347b8a9a768
1,253,37,64,1,5,9999,2304,b63cbc20b61914bd378ae347b8a9a768
1,254,64,64,1,7,9999,2159,b63cbc20b61914bd378ae347b8a9a768
1,255,73,73,1,8,9999,1322,b63cbc20b61914bd378ae347b8a9a768
1,256,64,73,1,8,9999,1000,b63cbc20b61914bd378ae347b8a9a768
1,257,10,19,1,1,9999,977,b63cbc20b61914bd378ae347b8a9a768
1,258,28,46,1,2,9999,2213,b63cbc20b61914bd378ae347b8a9a768
1,259,28,55,1,8,9999,1527,b63cbc20b61914bd378ae347b8a9a768
1,260,55,10,1,7,9999,1444,b63cbc20b61914bd378ae347b8a9a768
1,261,37,46,1,8,9999,1155,b63cbc20b61914bd378ae347b8a9a768
1,262,37,10,1,8,9999,1061,b63cbc20b61914bd378ae347b8a9a768
1,263,55,64,1,7,9999,1082,b63cbc20b61914bd378ae347b8a9a768
1,264,19,55,1,5,9999,1595,b63cbc20b61914bd378ae347b8a9a768
1,265,91,28,1,1,9999,1129,b63cbc20b61914bd378ae347b8a9a768
1,266,46,19,1,4,9999,1576,b63cbc20b61914bd378ae347b8a9a768
1,267,64,19,1,6,9999,967,b63cbc20b61914bd378ae347b8a9a768
1,268,73,55,1,8,9999,1150,b63cbc20b61914bd378ae347b8a9a768
1,269,82,10,1,7,9999,953,b63cbc20b61914bd378ae347b8a9a768
1,270,10,28,1,3,9999,2600,b63cbc20b61914bd378ae347b8a9a768
1,271,19,73,1,8,9999,1513,b63cbc20b61914bd378ae347b8a9a768
1,272,91,19,1,1,9999,1557,b63cbc20b61914bd378ae347b8a9a768
1,273,55,91,1,4,9999,3690,b63cbc20b61914bd378ae347b8a9a768
1,274,91,55,1,5,9999,1543,b63cbc20b61914bd378ae347b8a9a768
1,275,28,28,1,2,9999,1432,b63cbc20b61914bd378ae347b8a9a768
1,276,55,19,1,3,9999,1929,b63cbc20b61914bd378ae347b8a9a768
1,277,46,37,1,7,9999,1287,b63cbc20b61914bd378ae347b8a9a768
1,278,10,37,1,1,9999,870,b63cbc20b61914bd378ae347b8a9a768
1,279,64,46,1,2,9999,1206,b63cbc20b61914bd378ae347b8a9a768
1,280,73,64,1,7,9999,1259,b63cbc20b61914bd378ae347b8a9a768
1,281,46,73,1,8,9999,1083,b63cbc20b61914bd378ae347b8a9a768
1,282,91,10,1,5,9999,1799,b63cbc20b61914bd378ae347b8a9a768
1,283,46,64,1,2,9999,1692,b63cbc20b61914bd378ae347b8a9a768
1,284,73,82,1,6,9999,2376,b63cbc20b61914bd378ae347b8a9a768
1,285,28,10,1,2,9999,1721,b63cbc20b61914bd378ae347b8a9a768
1,286,55,73,1,6,9999,1461,b63cbc20b61914bd378ae347b8a9a768
1,287,73,28,1,7,9999,1321,b63cbc20b61914bd378ae347b8a9a768
1,288,82,55,1,7,9999,2479,b63cbc20b61914bd378ae347b8a9a768
1,289,28,64,1,3,9999,1914,b63cbc20b61914bd378ae347b8a9a768
1,290,82,28,1,1,9999,1260,b63cbc20b61914bd378ae347b8a9a768
1,291,10,10,1,1,9999,795,b63cbc20b61914bd378ae347b8a9a768
1,292,82,91,1,1,9999,698,b63cbc20b61914bd378ae347b8a9a768
1,293,19,64,1,1,9999,754,b63cbc20b61914bd378ae347b8a9a768
1,294,46,82,1,6,9999,2984,b63cbc20b61914bd378ae347b8a9a768
1,295,73,91,1,4,9999,1240,b63cbc20b61914bd378ae347b8a9a768
1,296,19,46,1,1,9999,1276,b63cbc20b61914bd378ae347b8a9a768
1,297,37,19,1,6,9999,2001,b63cbc20b61914bd378ae347b8a9a768
1,298,28,73,1,8,9999,1231,b63cbc20b61914bd378ae347b8a9a768
1,299,82,19,1,3,9999,2393,b63cbc20b61914bd378ae347b8a9a768
1,300,10,37,1,2,9999,2397,b63cbc20b61914bd378ae347b8a9a768
1,301,91,64,1,1,9999,905,b63cbc20b61914bd378ae347b8a9a768
1,302,55,19,1,4,9999,1739,b63cbc20b61914bd378ae347b8a9a768
1,303,46,55,1,6,9999,1003,b63cbc20b61914bd378ae347b8a9a768
1,304,19,10,1,3,9999,1705,b63cbc20b61914bd378ae347b8a9a768
1,305,64,46,1,2,9999,1594,b63cbc20b61914bd378ae347b8a9a768
1,306,10,91,1,1,9999,1334,b63cbc20b61914bd378ae347b8a9a768
1,307,55,28,1,3,9999,2161,b63cbc20b61914bd378ae347b8a9a768
1,308,82,55,1,6,9999,827,b63cbc20b61914bd378ae347b8a9a768
1,309,91,82,1,7,9999,1018,b63cbc20b61914bd378ae347b8a9a768
1,310,46,64,1,4,9999,1330,b63cbc20b61914bd378ae347b8a9a768
1,311,37,37,1,5,9999,1924,b63cbc20b61914bd378ae347b8a9a768
1,312,19,55,1,2,9999,1755,b63cbc20b61914bd378ae347b8a9a768
1,313,73,91,1,3,9999,1791,b63cbc20b61914bd378ae347b8a9a768
1,314,37,55,1,4,9999,2556,b63cbc20b61914bd378ae347b8a9a768
1,315,55,46,1,5,9999,996,b63cbc20b61914bd378ae347b8a9a768
1,316,37,91,1,7,9999,1137,b63cbc20b61914bd378ae347b8a9a768
1,317,46,82,1,8,9999,868,b63cbc20b61914bd378ae347b8a9a768
1,318,82,64,1,3,9999,1818,b63cbc20b61914bd378ae347b8a9a768
1,319,55,73,1,5,9999,1406,b63cbc20b61914bd378ae347b8a9a768
1,320,19,46,1,1,9999,1073,b63cbc20b61914bd378ae347b8a9a768
1,321,46,91,1,2,9999,1714,b63cbc20b61914bd378ae347b8a9a768
1,322,64,10,1,3,9999,1338,b63cbc20b61914bd378ae347b8a9a768
1,323,28,64,1,2,9999,1515,b63cbc20b61914bd378ae347b8a9a768
1,324,91,28,1,1,9999,907,b63cbc20b61914bd378ae347b8a9a768
1,325,91,10,1,8,9999,1420,b63cbc20b61914bd378ae347b8a9a768
1,326,10,64,1,1,9999,1070,b63cbc20b61914bd378ae347b8a9a768
1,327,46,10,1,5,9999,2662,b63cbc20b61914bd378ae347b8a9a768
1,328,82,73,1,1,9999,924,b63cbc20b61914bd378ae347b8a9a768
1,329,73,37,1,5,9999,1851,b63cbc20b61914bd378ae347b8a9a768
1,330,73,82,1,8,9999,990,b63cbc20b61914bd378ae347b8a9a768
1,331,91,91,1,8,9999,807,b63cbc20b61914bd378ae347b8a9a768
1,332,91,73,1,7,9999,967,b63cbc20b61914bd378ae347b8a9a768
1,333,19,64,1,1,9999,1027,b63cbc20b61914bd378ae347b8a9a768
1,334,64,82,1,1,9999,1893,b63cbc20b61914bd378ae347b8a9a768
1,335,46,19,1,3,9999,1559,b63cbc20b61914bd378ae347b8a9a768
1,336,28,82,1,4,9999,2619,b63cbc20b61914bd378ae347b8a9a768
1,337,82,46,1,2,9999,1269,b63cbc20b61914bd378ae347b8a9a768
1,338,91,46,1,6,9999,1249,b63cbc20b61914bd378ae347b8a9a768
1,339,19,28,1,1,9999,996,b63cbc20b61914bd378ae347b8a9a768
1,340,64,91,1,2,9999,1450,b63cbc20b61914bd378ae347b8a9a768
1,341,28,55,1,2,9999,2722,b63cbc20b61914bd378ae347b8a9a768
1,342,46,46,1,4,9999,1282,b63cbc20b61914bd378ae347b8a9a768
1,343,28,46,1,7,9999,1117,b63cbc20b61914bd378ae347b8a9a768
1,344,46,73,1,5,9999,1258,b63cbc20b61914bd378ae347b8a9a768
1,345,64,73,1,4,9999,2266,b63cbc20b61914bd378ae347b8a9a768
1,346,46,37,1,7,9999,1134,b63cbc20b61914bd378ae347b8a9a768
1,347,73,73,1,4,9999,1850,b63cbc20b61914bd378ae347b8a9a768
1,348,28,19,1,2,9999,1292,b63cbc20b61914bd378ae347b8a9a768
1,349,37,46,1,7,9999,1114,b63cbc20b61914bd378ae347b8a9a768
1,350,82,10,1,2,9999,1240,b63cbc20b61914bd378ae347b8a9a768
1,351,73,46,1,8,9999,1356,b63cbc20b61914bd378ae347b8a9a768
1,352,82,19,1,7,9999,1365,b63cbc20b61914bd378ae347b8a9a768
1,353,73,64,1,7,9999,1441,b63cbc20b61914bd378ae347b8a9a768
1,354,73,55,1,7,9999,993,b63cbc20b61914bd378ae347b8a9a768
1,355,55,82,1,8,9999,1223,b63cbc20b61914bd378ae347b8a9a768
1,356,55,55,1,7,9999,993,b63cbc20b61914bd378ae347b8a9a768
1,357,37,64,1,5,9999,2223,b63cbc20b61914bd378ae347b8a9a768
1,358,37,82,1,7,9999,1325,b63cbc20b61914bd378ae347b8a9a768
1,359,10,46,1,1,9999,942,b63cbc20b61914bd378ae347b8a9a768
1,360,91,37,1,1,9999,680,b63cbc20b61914bd378ae347b8a9a768
1,361,82,91,1,7,9999,1486,b63cbc20b61914bd378ae347b8a9a768
1,362,19,82,1,1,9999,923,b63cbc20b61914bd378ae347b8a9a768
1,363,55,37,1,2,9999,2144,b63cbc20b61914bd378ae347b8a9a768
1,364,10,55,1,1,9999,1015,b63cbc20b61914bd378ae347b8a9a768
1,365,82,37,1,1,9999,802,b63cbc20b61914bd378ae347b8a9a768
1,366,64,19,1,6,9999,1369,b63cbc20b61914bd378ae347b8a9a768
1,367,82,82,1,8,9999,1194,b63cbc20b61914bd378ae347b8a9a768
1,368,73,19,1,7,9999,927,b63cbc20b61914bd378ae347b8a9a768
1,369,55,10,1,5,9999,2204,b63cbc20b61914bd378ae347b8a9a768
1,370,82,28,1,6,9999,1687,b63cbc20b61914bd378ae347b8a9a768
1,371,28,10,1,2,9999,1087,b63cbc20b61914bd378ae347b8a9a768
1,372,19,73,1,6,9999,1137,b63cbc20b61914bd378ae347b8a9a768
1,373,10,73,1,8,9999,1242,b63cbc20b61914bd378ae347b8a9a768
1,374,28,73,1,7,9999,835,b63cbc20b61914bd378ae347b8a9a768
1,375,19,19,1,5,9999,2562,b63cbc20b61914bd378ae347b8a9a768
1,376,19,91,1,6,9999,1325,b63cbc20b61914bd378ae347b8a9a768
1,377,10,82,1,8,9999,1217,b63cbc20b61914bd378ae347b8a9a768
1,378,64,37,1,4,9999,1729,b63cbc20b61914bd378ae347b8a9a768
1,379,28,91,1,2,9999,1436,b63cbc20b61914bd378ae347b8a9a768
1,380,10,10,1,4,9999,1883,b63cbc20b61914bd378ae347b8a9a768
1,381,64,64,1,1,9999,1341,b63cbc20b61914bd378ae347b8a9a768
1,382,10,28,1,2,9999,1749,b63cbc20b61914bd378ae347b8a9a768
1,383,91,19,1,1,9999,767,b63cbc20b61914bd378ae347b8a9a768
1,384,19,37,1,1,9999,706,b63cbc20b61914bd378ae347b8a9a768
1,385,55,64,1,2,9999,1568,b63cbc20b61914bd378ae347b8a9a768
1,386,64,28,1,5,9999,1676,b63cbc20b61914bd378ae347b8a9a768
1,387,28,28,1,3,9999,1829,b63cbc20b61914bd378ae347b8a9a768
1,388,28,37,1,7,9999,1160,b63cbc20b61914bd378ae347b8a9a768
1,389,37,19,1,7,9999,1753,b63cbc20b61914bd378ae347b8a9a768
1,390,55,91,1,7,9999,2016,b63cbc20b61914bd378ae347b8a9a768
1,391,37,73,1,8,9999,1406,b63cbc20b61914bd378ae347b8a9a768
1,392,37,28,1,6,9999,1526,b63cbc20b61914bd378ae347b8a9a768
1,393,73,10,1,3,9999,1216,b63cbc20b61914bd378ae347b8a9a768
1,394,46,28,1,7,9999,1159,b63cbc20b61914bd378ae347b8a9a768
1,395,91,55,1,1,9999,981,b63cbc20b61914bd378ae347b8a9a768
1,396,37,10,1,2,9999,1193,b63cbc20b61914bd378ae347b8a9a768
1,397,73,28,1,2,9999,1294,b63cbc20b61914bd378ae347b8a9a768
1,398,10,19,1,1,9999,1044,b63cbc20b61914bd378ae347b8a9a768
1,399,64,55,1,2,9999,1870,b63cbc20b61914bd378ae347b8a9a768
4,0,64,64,4,1,0,1228,ff593857fc2a782627c4b16de5e0117d
4,1,28,91,2,2,1,3467,ff593857fc2a782627c4b16de5e0117d
4,2,55,19,3,3,1,1236,ff593857fc2a782627c4b16de5e0117d
4,3,19,73,2,2,1,784,ff593857fc2a782627c4b16de5e0117d
4,4,91,91,4,4,1,1171,ff593857fc2a782627c4b16de5e0117d
4,5,82,91,4,4,1,800,ff593857fc2a782627c4b16de5e0117d
4,6,10,19,1,3,0,626,ff593857fc2a782627c4b16de5e0117d
4,7,37,55,2,2,1,918,ff593857fc2a782627c4b16de5e0117d
4,8,46,46,1,3,0,679,ff593857fc2a782627c4b16de5e0117d
4,9,10,73,2,4,0,1219,ff593857fc2a782627c4b16de5e0117d
4,10,28,19,1,3,0,945,ff593857fc2a782627c4b16de5e0117d
4,11,19,37,1,2,0,789,ff593857fc2a782627c4b16de5e0117d
4,12,37,28,1,1,1,647,ff593857fc2a782627c4b16de5e0117d
4,13,82,37,3,3,1,1289,ff593857fc2a782627c4b16de5e0117d
4,14,91,82,4,2,0,683,ff593857fc2a782627c4b16de5e0117d
4,15,91,19,3,1,0,823,ff593857fc2a782627c4b16de5e0117d
4,16,46,55,2,2,1,693,ff593857fc2a782627c4b16de5e0117d
4,17,28,28,1,1,1,826,ff593857fc2a782627c4b16de5e0117d
4,18,28,37,1,2,0,810,ff593857fc2a782627c4b16de5e0117d
4,19,10,28,1,1,1,652,ff593857fc2a782627c4b16de5e0117d
4,20,46,10,1,2,0,1322,ff593857fc2a782627c4b16de5e0117d
4,21,19,55,2,3,0,964,ff593857fc2a782627c4b16de5e0117d
4,22,55,37,3,3,1,1090,ff593857fc2a782627c4b16de5e0117d
4,23,91,64,4,4,1,783,ff593857fc2a782627c4b16de5e0117d
4,24,55,91,4,2,0,1434,ff593857fc2a782627c4b16de5e0117d
4,25,73,10,3,2,0,1053,ff593857fc2a782627c4b16de5e0117d
4,26,10,37,1,1,1,835,ff593857fc2a782627c4b16de5e0117d
4,27,64,19,3,1,0,982,ff593857fc2a782627c4b16de5e0117d
4,28,73,64,4,3,0,1246,ff593857fc2a782627c4b16de5e0117d
4,29,91,10,3,4,0,1239,ff593857fc2a782627c4b16de5e0117d
4,30,10,91,2,1,0,1048,ff593857fc2a782627c4b16de5e0117d
4,31,10,55,2,2,1,1010,ff593857fc2a782627c4b16de5e0117d
4,32,10,10,1,2,0,1260,ff593857fc2a782627c4b16de5e0117d
4,33,37,46,1,2,0,987,ff593857fc2a782627c4b16de5e0117d
4,34,55,28,3,1,0,1265,ff593857fc2a782627c4b16de5e0117d
4,35,82,19,3,4,0,857,ff593857fc2a782627c4b16de5e0117d
4,36,28,10,1,2,0,1047,ff593857fc2a782627c4b16de5e0117d
4,37,73,37,3,2,0,845,ff593857fc2a782627c4b16de5e0117d
4,38,73,46,3,4,0,1138,ff593857fc2a782627c4b16de5e0117d
4,39,82,82,4,4,1,2662,ff593857fc2a782627c4b16de5e0117d
4,40,82,73,4,4,1,1586,ff593857fc2a782627c4b16de5e0117d
4,41,19,10,1,1,1,1202,ff593857fc2a782627c4b16de5e0117d
4,42,55,73,4,1,0,1105,ff593857fc2a782627c4b16de5e0117d
4,43,64,46,3,4,0,740,ff593857fc2a782627c4b16de5e0117d
4,44,82,64,4,2,0,854,ff593857fc2a782627c4b16de5e0117d
4,45,64,73,4,4,1,1002,ff593857fc2a782627c4b16de5e0117d
4,46,37,64,2,2,1,1115,ff593857fc2a782627c4b16de5e0117d
4,47,91,37,3,4,0,813,ff593857fc2a782627c4b16de5e0117d
4,48,46,82,2,4,0,1158,ff593857fc2a782627c4b16de5e0117d
4,49,55,64,4,2,0,815,ff593857fc2a782627c4b16de5e0117d
4,50,46,28,1,1,1,995,ff593857fc2a782627c4b16de5e0117d
4,51,64,37,3,1,0,802,ff593857fc2a782627c4b16de5e0117d
4,52,55,46,3,3,1,738,ff593857fc2a782627c4b16de5e0117d
4,53,46,73,2,3,0,1303,ff593857fc2a782627c4b16de5e0117d
4,54,73,19,3,2,0,891,ff593857fc2a782627c4b16de5e0117d
4,55,19,46,1,1,1,711,ff593857fc2a782627c4b16de5e0117d
4,56,64,10,3,3,1,1245,ff593857fc2a782627c4b16de5e0117d
4,57,55,10,3,3,1,1009,ff593857fc2a782627c4b16de5e0117d
4,58,46,91,2,3,0,741,ff593857fc2a782627c4b16de5e0117d
4,59,64,91,4,3,0,764,ff593857fc2a782627c4b16de5e0117d
4,60,82,55,4,4,1,744,ff593857fc2a782627c4b16de5e0117d
4,61,28,55,2,1,0,1139,ff593857fc2a782627c4b16de5e0117d
4,62,73,28,3,3,1,767,ff593857fc2a782627c4b16de5e0117d
4,63,10,46,1,1,1,700,ff593857fc2a782627c4b16de5e0117d
4,64,82,46,3,4,0,938,ff593857fc2a782627c4b16de5e0117d
4,65,55,82,4,2,0,1089,ff593857fc2a782627c4b16de5e0117d
4,66,64,55,4,2,0,1257,ff593857fc2a782627c4b16de5e0117d
4,67,64,82,4,4,1,703,ff593857fc2a782627c4b16de5e0117d
4,68,55,55,4,4,1,807,ff593857fc2a782627c4b16de5e0117d
4,69,37,82,2,2,1,1001,ff593857fc2a782627c4b16de5e0117d
4,70,91,28,3,3,1,761,ff593857fc2a782627c4b16de5e0117d
4,71,73,82,4,2,0,1117,ff593857fc2a782627c4b16de5e0117d
4,72,73,73,4,3,0,862,ff593857fc2a782627c4b16de5e0117d
4,73,64,28,3,4,0,517,ff593857fc2a782627c4b16de5e0117d
4,74,28,82,2,1,0,913,ff593857fc2a782627c4b16de5e0117d
4,75,91,46,3,4,0,925,ff593857fc2a782627c4b16de5e0117d
4,76,10,64,2,1,0,788,ff593857fc2a782627c4b16de5e0117d
4,77,19,64,2,1,0,766,ff593857fc2a782627c4b16de5e0117d
4,78,28,64,2,2,1,892,ff593857fc2a782627c4b16de5e0117d
4,79,37,91,2,2,1,960,ff593857fc2a782627c4b16de5e0117d
4,80,37,10,1,1,1,920,ff593857fc2a782627c4b16de5e0117d
4,81,73,91,4,3,0,1004,ff593857fc2a782627c4b16de5e0117d
4,82,46,19,1,2,0,2128,ff593857fc2a782627c4b16de5e0117d
4,83,28,46,1,1,1,1852,ff593857fc2a782627c4b16de5e0117d
4,84,82,28,3,4,0,1193,ff593857fc2a782627c4b16de5e0117d
4,85,46,37,1,4,0,1151,ff593857fc2a782627c4b16de5e0117d
4,86,82,10,3,4,0,1003,ff593857fc2a782627c4b16de5e0117d
4,87,19,82,2,2,1,919,ff593857fc2a782627c4b16de5e0117d
4,88,73,55,4,3,0,1613,ff593857fc2a782627c4b16de5e0117d
4,89,19,28,1,2,0,1400,ff593857fc2a782627c4b16de5e0117d
4,90,91,73,4,4,1,924,ff593857fc2a782627c4b16de5e0117d
4,91,46,64,2,3,0,1160,ff593857fc2a782627c4b16de5e0117d
4,92,37,19,1,1,1,1718,ff593857fc2a782627c4b16de5e0117d
4,93,91,55,4,2,0,1919,ff593857fc2a782627c4b16de5e0117d
4,94,37,73,2,2,1,840,ff593857fc2a782627c4b16de5e0117d
4,95,19,19,1,1,1,765,ff593857fc2a782627c4b16de5e0117d
4,96,28,73,2,2,1,1573,ff593857fc2a782627c4b16de5e0117d
4,97,19,91,2,2,1,1128,ff593857fc2a782627c4b16de5e0117d
4,98,10,82,2,2,1,1126,ff593857fc2a782627c4b16de5e0117d
4,99,37,37,1,1,1,1154,ff593857fc2a782627c4b16de5e0117d
4,100,55,73,4,4,1,2650,ff593857fc2a782627c4b16de5e0117d
4,101,91,64,4,4,1,1453,ff593857fc2a782627c4b16de5e0117d
4,102,19,82,2,2,1,1310,ff593857fc2a782627c4b16de5e0117d
4,103,19,10,1,1,1,615,ff593857fc2a782627c4b16de5e0117d
4,104,28,64,2,1,0,813,ff593857fc2a782627c4b16de5e0117d
4,105,91,46,3,3,1,584,ff593857fc2a782627c4b16de5e0117d
4,106,46,73,2,4,0,1253,ff593857fc2a782627c4b16de5e0117d
4,107,55,46,3,3,1,1033,ff593857fc2a782627c4b16de5e0117d
4,108,28,73,2,2,1,772,ff593857fc2a782627c4b16de5e0117d
4,109,19,91,2,2,1,753,ff593857fc2a782627c4b16de5e0117d
4,110,64,91,4,4,1,1508,ff593857fc2a782627c4b16de5e0117d
4,111,55,10,3,3,1,873,ff593857fc2a782627c4b16de5e0117d
4,112,73,91,4,3,0,860,ff593857fc2a782627c4b16de5e0117d
4,113,37,91,2,4,0,1221,ff593857fc2a782627c4b16de5e0117d
4,114,64,46,3,3,1,995,ff593857fc2a782627c4b16de5e0117d
4,115,91,19,3,4,0,1065,ff593857fc2a782627c4b16de5e0117d
4,116,28,82,2,2,1,1028,ff593857fc2a782627c4b16de5e0117d
4,117,19,37,1,1,1,858,ff593857fc2a782627c4b16de5e0117d
4,118,82,28,3,3,1,1086,ff593857fc2a782627c4b16de5e0117d
4,119,10,55,2,2,1,771,ff593857fc2a782627c4b16de5e0117d
4,120,73,73,4,3,0,764,ff593857fc2a782627c4b16de5e0117d
4,121,82,64,4,4,1,1061,ff593857fc2a782627c4b16de5e0117d
4,122,37,55,2,3,0,862,ff593857fc2a782627c4b16de5e0117d
4,123,28,19,1,1,1,1332,ff593857fc2a782627c4b16de5e0117d
4,124,82,19,3,4,0,1937,ff593857fc2a782627c4b16de5e0117d
4,125,10,37,1,1,1,1416,ff593857fc2a782627c4b16de5e0117d
4,126,55,82,4,2,0,787,ff593857fc2a782627c4b16de5e0117d
4,127,64,73,4,3,0,1089,ff593857fc2a782627c4b16de5e0117d
4,128,10,46,1,1,1,1238,ff593857fc2a782627c4b16de5e0117d
4,129,37,64,2,2,1,913,ff593857fc2a782627c4b16de5e0117d
4,130,73,37,3,3,1,1629,ff593857fc2a782627c4b16de5e0117d
4,131,91,55,4,4,1,553,ff593857fc2a782627c4b16de5e0117d
4,132,46,10,1,3,0,1224,ff593857fc2a782627c4b16de5e0117d
4,133,46,82,2,2,1,1064,ff593857fc2a782627c4b16de5e0117d
4,134,91,73,4,3,0,1026,ff593857fc2a782627c4b16de5e0117d
4,135,10,73,2,2,1,1022,ff593857fc2a782627c4b16de5e0117d
4,136,91,91,4,4,1,1253,ff593857fc2a782627c4b16de5e0117d
4,137,37,73,2,2,1,1353,ff593857fc2a782627c4b16de5e0117d
4,138,46,19,1,1,1,1119,ff593857fc2a782627c4b16de5e0117d
4,139,82,10,3,3,1,1256,ff593857fc2a782627c4b16de5e0117d
4,140,64,64,4,4,1,1409,ff593857fc2a782627c4b16de5e0117d
4,141,55,55,4,3,0,1375,ff593857fc2a782627c4b16de5e0117d
4,142,82,91,4,3,0,756,ff593857fc2a782627c4b16de5e0117d
4,143,73,55,4,3,0,908,ff593857fc2a782627c4b16de5e0117d
4,144,46,91,2,4,0,1535,ff593857fc2a782627c4b16de5e0117d
4,145,82,73,4,4,1,916,ff593857fc2a782627c4b16de5e0117d
4,146,55,19,3,3,1,880,ff593857fc2a782627c4b16de5e0117d
4,147,19,73,2,2,1,1480,ff593857fc2a782627c4b16de5e0117d
4,148,19,64,2,2,1,1134,ff593857fc2a782627c4b16de5e0117d
4,149,64,10,3,4,0,1920,ff593857fc2a782627c4b16de5e0117d
4,150,73,19,3,3,1,846,ff593857fc2a782627c4b16de5e0117d
4,151,10,10,1,1,1,1003,ff593857fc2a782627c4b16de5e0117d
4,152,19,55,2,2,1,996,ff593857fc2a782627c4b16de5e0117d
4,153,37,19,1,1,1,1230,ff593857fc2a782627c4b16de5e0117d
4,154,10,28,1,1,1,911,ff593857fc2a782627c4b16de5e0117d
4,155,28,55,2,2,1,969,ff593857fc2a782627c4b16de5e0117d
4,156,46,28,1,3,0,1902,ff593857fc2a782627c4b16de5e0117d
4,157,82,55,4,3,0,1198,ff593857fc2a782627c4b16de5e0117d
4,158,91,28,3,3,1,1927,ff593857fc2a782627c4b16de5e0117d
4,159,28,37,1,2,0,1819,ff593857fc2a782627c4b16de5e0117d
4,160,28,46,1,2,0,1357,ff593857fc2a782627c4b16de5e0117d
4,161,37,10,1,1,1,712,ff593857fc2a782627c4b16de5e0117d
4,162,10,91,2,2,1,1012,ff593857fc2a782627c4b16de5e0117d
4,163,10,19,1,1,1,827,ff593857fc2a782627c4b16de5e0117d
4,164,91,82,4,4,1,1108,ff593857fc2a782627c4b16de5e0117d
4,165,73,46,3,3,1,975,ff593857fc2a782627c4b16de5e0117d
4,166,82,46,3,4,0,888,ff593857fc2a782627c4b16de5e0117d
4,167,64,82,4,3,0,1060,ff593857fc2a782627c4b16de5e0117d
4,168,55,28,3,3,1,924,ff593857fc2a782627c4b16de5e0117d
4,169,55,91,4,4,1,736,ff593857fc2a782627c4b16de5e0117d
4,170,28,91,2,2,1,881,ff593857fc2a782627c4b16de5e0117d
4,171,10,82,2,2,1,1136,ff593857fc2a782627c4b16de5e0117d
4,172,37,28,1,1,1,1426,ff593857fc2a782627c4b16de5e0117d
4,173,37,46,1,2,0,1999,ff593857fc2a782627c4b16de5e0117d
4,174,82,82,4,4,1,1520,ff593857fc2a782627c4b16de5e0117d
4,175,10,64,2,2,1,1103,ff593857fc2a782627c4b16de5e0117d
4,176,46,64,2,3,0,1337,ff593857fc2a782627c4b16de5e0117d
4,177,91,37,3,3,1,1354,ff593857fc2a782627c4b16de5e0117d
4,178,46,46,1,2,0,1965,ff593857fc2a782627c4b16de5e0117d
4,179,64,55,4,3,0,1707,ff593857fc2a782627c4b16de5e0117d
4,180,55,37,3,3,1,771,ff593857fc2a782627c4b16de5e0117d
4,181,19,28,1,1,1,1548,ff593857fc2a782627c4b16de5e0117d
4,182,64,37,3,3,1,1404,ff593857fc2a782627c4b16de5e0117d
4,183,37,82,2,2,1,1315,ff593857fc2a782627c4b16de5e0117d
4,184,73,28,3,3,1,1073,ff593857fc2a782627c4b16de5e0117d
4,185,64,19,3,3,1,1283,ff593857fc2a782627c4b16de5e0117d
4,186,73,10,3,3,1,916,ff593857fc2a782627c4b16de5e0117d
4,187,73,82,4,4,1,915,ff593857fc2a782627c4b16de5e0117d
4,188,46,55,2,3,0,1531,ff593857fc2a782627c4b16de5e0117d
4,189,28,28,1,1,1,850,ff593857fc2a782627c4b16de5e0117d
4,190,73,64,4,3,0,1784,ff593857fc2a782627c4b16de5e0117d
4,191,55,64,4,4,1,765,ff593857fc2a782627c4b16de5e0117d
4,192,46,37,1,3,0,1067,ff593857fc2a782627c4b16de5e0117d
4,193,28,10,1,1,1,658,ff593857fc2a782627c4b16de5e0117d
4,194,37,37,1,1,1,1587,ff593857fc2a782627c4b16de5e0117d
4,195,64,28,3,3,1,1087,ff593857fc2a782627c4b16de5e0117d
4,196,91,10,3,3,1,1135,ff593857fc2a782627c4b16de5e0117d
4,197,19,46,1,2,0,995,ff593857fc2a782627c4b16de5e0117d
4,198,19,19,1,1,1,763,ff593857fc2a782627c4b16de5e0117d
4,199,82,37,3,3,1,1173,ff593857fc2a782627c4b16de5e0117d
4,200,73,55,4,3,0,1495,ff593857fc2a782627c4b16de5e0117d
4,201,19,73,2,2,1,1037,ff593857fc2a782627c4b16de5e0117d
4,202,19,10,1,1,1,613,ff593857fc2a782627c4b16de5e0117d
4,203,46,10,1,1,1,1004,ff593857fc2a782627c4b16de5e0117d
4,204,73,64,4,3,0,1006,ff593857fc2a782627c4b16de5e0117d
4,205,91,91,4,4,1,854,ff593857fc2a782627c4b16de5e0117d
4,206,91,82,4,4,1,727,ff593857fc2a782627c4b16de5e0117d
4,207,82,28,3,3,1,949,ff593857fc2a782627c4b16de5e0117d
4,208,28,10,1,1,1,882,ff593857fc2a782627c4b16de5e0117d
4,209,37,37,1,2,0,956,ff593857fc2a782627c4b16de5e0117d
4,210,28,91,2,2,1,736,ff593857fc2a782627c4b16de5e0117d
4,211,73,73,4,4,1,1398,ff593857fc2a782627c4b16de5e0117d
4,212,37,55,2,2,1,1404,ff593857fc2a782627c4b16de5e0117d
4,213,64,55,4,4,1,2075,ff593857fc2a782627c4b16de5e0117d
4,214,73,37,3,3,1,1322,ff593857fc2a782627c4b16de5e0117d
4,215,37,64,2,2,1,1234,ff593857fc2a782627c4b16de5e0117d
4,216,91,10,3,4,0,924,ff593857fc2a782627c4b16de5e0117d
4,217,55,73,4,2,0,1888,ff593857fc2a782627c4b16de5e0117d
4,218,37,82,2,2,1,790,ff593857fc2a782627c4b16de5e0117d
4,219,73,19,3,3,1,975,ff593857fc2a782627c4b16de5e0117d
4,220,64,37,3,3,1,969,ff593857fc2a782627c4b16de5e0117d
4,221,55,55,4,4,1,1469,ff593857fc2a782627c4b16de5e0117d
4,222,64,64,4,4,1,1132,ff593857fc2a782627c4b16de5e0117d
4,223,19,82,2,2,1,726,ff593857fc2a782627c4b16de5e0117d
4,224,55,82,4,4,1,1293,ff593857fc2a782627c4b16de5e0117d
4,225,28,73,2,2,1,1030,ff593857fc2a782627c4b16de5e0117d
4,226,46,37,1,1,1,942,ff593857fc2a782627c4b16de5e0117d
4,227,73,10,3,3,1,1020,ff593857fc2a782627c4b16de5e0117d
4,228,55,28,3,3,1,1075,ff593857fc2a782627c4b16de5e0117d
4,229,19,19,1,1,1,1102,ff593857fc2a782627c4b16de5e0117d
4,230,37,19,1,1,1,1035,ff593857fc2a782627c4b16de5e0117d
4,231,19,46,1,2,0,1064,ff593857fc2a782627c4b16de5e0117d
4,232,91,55,4,4,1,1370,ff593857fc2a782627c4b16de5e0117d
4,233,82,82,4,4,1,1003,ff593857fc2a782627c4b16de5e0117d
4,234,46,82,2,4,0,1521,ff593857fc2a782627c4b16de5e0117d
4,235,64,82,4,4,1,1329,ff593857fc2a782627c4b16de5e0117d
4,236,73,82,4,4,1,1159,ff593857fc2a782627c4b16de5e0117d
4,237,28,28,1,1,1,1197,ff593857fc2a782627c4b16de5e0117d
4,238,28,82,2,2,1,815,ff593857fc2a782627c4b16de5e0117d
4,239,91,19,3,3,1,1100,ff593857fc2a782627c4b16de5e0117d
4,240,10,91,2,2,1,941,ff593857fc2a782627c4b16de5e0117d
4,241,10,37,1,1,1,887,ff593857fc2a782627c4b16de5e0117d
4,242,19,55,2,1,0,1321,ff593857fc2a782627c4b16de5e0117d
4,243,46,46,1,3,0,1095,ff593857fc2a782627c4b16de5e0117d
4,244,91,73,4,4,1,1110,ff593857fc2a782627c4b16de5e0117d
4,245,46,28,1,3,0,1658,ff593857fc2a782627c4b16de5e0117d
4,246,37,28,1,1,1,1033,ff593857fc2a782627c4b16de5e0117d
4,247,10,19,1,1,1,708,ff593857fc2a782627c4b16de5e0117d
4,248,37,73,2,2,1,863,ff593857fc2a782627c4b16de5e0117d
4,249,64,91,4,3,0,1025,ff593857fc2a782627c4b16de5e0117d
4,250,82,37,3,3,1,847,ff593857fc2a782627c4b16de5e0117d
4,251,46,73,2,2,1,1293,ff593857fc2a782627c4b16de5e0117d
4,252,64,10,3,1,0,1647,ff593857fc2a782627c4b16de5e0117d
4,253,64,28,3,3,1,929,ff593857fc2a782627c4b16de5e0117d
4,254,91,64,4,4,1,1137,ff593857fc2a782627c4b16de5e0117d
4,255,19,37,1,2,0,1486,ff593857fc2a782627c4b16de5e0117d
4,256,82,73,4,4,1,1736,ff593857fc2a782627c4b16de5e0117d
4,257,28,55,2,2,1,794,ff593857fc2a782627c4b16de5e0117d
4,258,82,64,4,4,1,890,ff593857fc2a782627c4b16de5e0117d
4,259,73,28,3,4,0,1188,ff593857fc2a782627c4b16de5e0117d
4,260,28,19,1,1,1,920,ff593857fc2a782627c4b16de5e0117d
4,261,28,46,1,1,1,1109,ff593857fc2a782627c4b16de5e0117d
4,262,37,10,1,1,1,814,ff593857fc2a782627c4b16de5e0117d
4,263,28,64,2,2,1,763,ff593857fc2a782627c4b16de5e0117d
4,264,37,46,1,1,1,1250,ff593857fc2a782627c4b16de5e0117d
4,265,55,64,4,2,0,1135,ff593857fc2a782627c4b16de5e0117d
4,266,82,10,3,3,1,1127,ff593857fc2a782627c4b16de5e0117d
4,267,73,46,3,3,1,1310,ff593857fc2a782627c4b16de5e0117d
4,268,64,19,3,3,1,1059,ff593857fc2a782627c4b16de5e0117d
4,269,19,91,2,2,1,824,ff593857fc2a782627c4b16de5e0117d
4,270,91,37,3,3,1,1195,ff593857fc2a782627c4b16de5e0117d
4,271,55,19,3,3,1,876,ff593857fc2a782627c4b16de5e0117d
4,272,55,91,4,4,1,1929,ff593857fc2a782627c4b16de5e0117d
4,273,10,28,1,1,1,905,ff593857fc2a782627c4b16de5e0117d
4,274,10,82,2,2,1,798,ff593857fc2a782627c4b16de5e0117d
4,275,37,91,2,2,1,1103,ff593857fc2a782627c4b16de5e0117d
4,276,64,73,4,4,1,1015,ff593857fc2a782627c4b16de5e0117d
4,277,28,37,1,1,1,1547,ff593857fc2a782627c4b16de5e0117d
4,278,10,73,2,2,1,787,ff593857fc2a782627c4b16de5e0117d
4,279,64,46,3,3,1,1056,ff593857fc2a782627c4b16de5e0117d
4,280,82,91,4,4,1,765,ff593857fc2a782627c4b16de5e0117d
4,281,46,64,2,2,1,1126,ff593857fc2a782627c4b16de5e0117d
4,282,91,28,3,3,1,965,ff593857fc2a782627c4b16de5e0117d
4,283,46,91,2,4,0,1018,ff593857fc2a782627c4b16de5e0117d
4,284,55,46,3,3,1,1639,ff593857fc2a782627c4b16de5e0117d
4,285,46,55,2,3,0,1059,ff593857fc2a782627c4b16de5e0117d
4,286,82,55,4,3,0,1119,ff593857fc2a782627c4b16de5e0117d
4,287,10,46,1,2,0,1041,ff593857fc2a782627c4b16de5e0117d
4,288,91,46,3,3,1,1213,ff593857fc2a782627c4b16de5e0117d
4,289,82,19,3,3,1,1395,ff593857fc2a782627c4b16de5e0117d
4,290,55,37,3,1,0,1470,ff593857fc2a782627c4b16de5e0117d
4,291,73,91,4,4,1,1335,ff593857fc2a782627c4b16de5e0117d
4,292,10,55,2,2,1,941,ff593857fc2a782627c4b16de5e0117d
4,293,55,10,3,1,0,1379,ff593857fc2a782627c4b16de5e0117d
4,294,19,64,2,2,1,825,ff593857fc2a782627c4b16de5e0117d
4,295,19,28,1,1,1,976,ff593857fc2a782627c4b16de5e0117d
4,296,46,19,1,3,0,1596,ff593857fc2a782627c4b16de5e0117d
4,297,10,10,1,1,1,712,ff593857fc2a782627c4b16de5e0117d
4,298,82,46,3,3,1,1449,ff593857fc2a782627c4b16de5e0117d
4,299,10,64,2,2,1,1020,ff593857fc2a782627c4b16de5e0117d
4,300,10,91,2,2,1,1366,ff593857fc2a782627c4b16de5e0117d
4,301,46,73,2,2,1,1904,ff593857fc2a782627c4b16de5e0117d
4,302,46,91,2,2,1,733,ff593857fc2a782627c4b16de5e0117d
4,303,91,10,3,3,1,742,ff593857fc2a782627c4b16de5e0117d
4,304,73,37,3,3,1,749,ff593857fc2a782627c4b16de5e0117d
4,305,10,73,2,2,1,894,ff593857fc2a782627c4b16de5e0117d
4,306,64,46,3,3,1,2203,ff593857fc2a782627c4b16de5e0117d
4,307,46,28,1,3,0,1437,ff593857fc2a782627c4b16de5e0117d
4,308,46,46,1,2,0,1370,ff593857fc2a782627c4b16de5e0117d
4,309,37,28,1,1,1,704,ff593857fc2a782627c4b16de5e0117d
4,310,28,19,1,1,1,720,ff593857fc2a782627c4b16de5e0117d
4,311,64,10,3,1,0,1715,ff593857fc2a782627c4b16de5e0117d
4,312,19,37,1,1,1,1287,ff593857fc2a782627c4b16de5e0117d
4,313,64,37,3,3,1,1093,ff593857fc2a782627c4b16de5e0117d
4,314,91,82,4,4,1,817,ff593857fc2a782627c4b16de5e0117d
4,315,28,82,2,2,1,694,ff593857fc2a782627c4b16de5e0117d
4,316,91,91,4,4,1,800,ff593857fc2a782627c4b16de5e0117d
4,317,10,55,2,2,1,784,ff593857fc2a782627c4b16de5e0117d
4,318,73,46,3,3,1,1354,ff593857fc2a782627c4b16de5e0117d
4,319,10,28,1,1,1,873,ff593857fc2a782627c4b16de5e0117d
4,320,19,28,1,1,1,779,ff593857fc2a782627c4b16de5e0117d
4,321,64,19,3,3,1,1216,ff593857fc2a782627c4b16de5e0117d
4,322,10,46,1,2,0,1039,ff593857fc2a782627c4b16de5e0117d
4,323,64,64,4,4,1,1171,ff593857fc2a782627c4b16de5e0117d
4,324,10,64,2,2,1,827,ff593857fc2a782627c4b16de5e0117d
4,325,91,73,4,4,1,840,ff593857fc2a782627c4b16de5e0117d
4,326,28,46,1,1,1,1706,ff593857fc2a782627c4b16de5e0117d
4,327,28,28,1,1,1,764,ff593857fc2a782627c4b16de5e0117d
4,328,73,28,3,3,1,841,ff593857fc2a782627c4b16de5e0117d
4,329,91,28,3,3,1,1160,ff593857fc2a782627c4b16de5e0117d
4,330,46,64,2,4,0,1688,ff593857fc2a782627c4b16de5e0117d
4,331,73,10,3,3,1,877,ff593857fc2a782627c4b16de5e0117d
4,332,28,73,2,2,1,754,ff593857fc2a782627c4b16de5e0117d
4,333,19,73,2,2,1,720,ff593857fc2a782627c4b16de5e0117d
4,334,91,55,4,4,1,1641,ff593857fc2a782627c4b16de5e0117d
4,335,37,37,1,1,1,1600,ff593857fc2a782627c4b16de5e0117d
4,336,55,37,3,1,0,806,ff593857fc2a782627c4b16de5e0117d
4,337,19,55,2,2,1,945,ff593857fc2a782627c4b16de5e0117d
4,338,55,10,3,3,1,949,ff593857fc2a782627c4b16de5e0117d
4,339,64,28,3,3,1,904,ff593857fc2a782627c4b16de5e0117d
4,340,91,46,3,4,0,817,ff593857fc2a782627c4b16de5e0117d
4,341,55,73,4,4,1,786,ff593857fc2a782627c4b16de5e0117d
4,342,28,10,1,1,1,1147,ff593857fc2a782627c4b16de5e0117d
4,343,91,19,3,3,1,1221,ff593857fc2a782627c4b16de5e0117d
4,344,55,28,3,3,1,858,ff593857fc2a782627c4b16de5e0117d
4,345,28,55,2,2,1,1215,ff593857fc2a782627c4b16de5e0117d
4,346,37,55,2,2,1,813,ff593857fc2a782627c4b16de5e0117d
4,347,82,73,4,4,1,941,ff593857fc2a782627c4b16de5e0117d
4,348,82,19,3,3,1,724,ff593857fc2a782627c4b16de5e0117d
4,349,46,82,2,4,0,1861,ff593857fc2a782627c4b16de5e0117d
4,350,82,64,4,4,1,1061,ff593857fc2a782627c4b16de5e0117d
4,351,73,82,4,2,0,1277,ff593857fc2a782627c4b16de5e0117d
4,352,10,82,2,2,1,812,ff593857fc2a782627c4b16de5e0117d
4,353,19,46,1,1,1,1345,ff593857fc2a782627c4b16de5e0117d
4,354,37,73,2,2,1,799,ff593857fc2a782627c4b16de5e0117d
4,355,82,91,4,4,1,765,ff593857fc2a782627c4b16de5e0117d
4,356,73,73,4,4,1,609,ff593857fc2a782627c4b16de5e0117d
4,357,82,28,3,3,1,793,ff593857fc2a782627c4b16de5e0117d
4,358,73,91,4,4,1,718,ff593857fc2a782627c4b16de5e0117d
4,359,91,37,3,3,1,883,ff593857fc2a782627c4b16de5e0117d
4,360,10,10,1,1,1,723,ff593857fc2a782627c4b16de5e0117d
4,361,19,19,1,1,1,658,ff593857fc2a782627c4b16de5e0117d
4,362,28,37,1,1,1,1039,ff593857fc2a782627c4b16de5e0117d
4,363,55,82,4,2,0,769,ff593857fc2a782627c4b16de5e0117d
4,364,46,37,1,3,0,1064,ff593857fc2a782627c4b16de5e0117d
4,365,64,91,4,2,0,1661,ff593857fc2a782627c4b16de5e0117d
4,366,82,10,3,3,1,965,ff593857fc2a782627c4b16de5e0117d
4,367,64,82,4,4,1,1117,ff593857fc2a782627c4b16de5e0117d
4,368,28,64,2,2,1,1080,ff593857fc2a782627c4b16de5e0117d
4,369,46,19,1,1,1,1204,ff593857fc2a782627c4b16de5e0117d
4,370,37,64,2,2,1,1111,ff593857fc2a782627c4b16de5e0117d
4,371,73,19,3,3,1,950,ff593857fc2a782627c4b16de5e0117d
4,372,64,73,4,4,1,873,ff593857fc2a782627c4b16de5e0117d
4,373,37,19,1,1,1,803,ff593857fc2a782627c4b16de5e0117d
4,374,10,19,1,1,1,803,ff593857fc2a782627c4b16de5e0117d
4,375,73,55,4,2,0,1854,ff593857fc2a782627c4b16de5e0117d
4,376,46,55,2,2,1,1277,ff593857fc2a782627c4b16de5e0117d
4,377,10,37,1,1,1,1129,ff593857fc2a782627c4b16de5e0117d
4,378,55,19,3,1,0,996,ff593857fc2a782627c4b16de5e0117d
4,379,19,10,1,1,1,766,ff593857fc2a782627c4b16de5e0117d
4,380,19,64,2,2,1,853,ff593857fc2a782627c4b16de5e0117d
4,381,82,82,4,4,1,855,ff593857fc2a782627c4b16de5e0117d
4,382,64,55,4,4,1,1677,ff593857fc2a782627c4b16de5e0117d
4,383,37,10,1,1,1,811,ff593857fc2a782627c4b16de5e0117d
4,384,82,55,4,4,1,906,ff593857fc2a782627c4b16de5e0117d
4,385,37,46,1,2,0,2200,ff593857fc2a782627c4b16de5e0117d
4,386,37,91,2,2,1,999,ff593857fc2a782627c4b16de5e0117d
4,387,55,46,3,3,1,1415,ff593857fc2a782627c4b16de5e0117d
4,388,73,64,4,4,1,1017,ff593857fc2a782627c4b16de5e0117d
4,389,55,64,4,4,1,1085,ff593857fc2a782627c4b16de5e0117d
4,390,82,37,3,3,1,1107,ff593857fc2a782627c4b16de5e0117d
4,391,46,10,1,1,1,1728,ff593857fc2a782627c4b16de5e0117d
4,392,19,82,2,2,1,716,ff593857fc2a782627c4b16de5e0117d
4,393,55,91,4,4,1,1791,ff593857fc2a782627c4b16de5e0117d
4,394,82,46,3,3,1,1211,ff593857fc2a782627c4b16de5e0117d
4,395,37,82,2,2,1,1129,ff593857fc2a782627c4b16de5e0117d
4,396,19,91,2,2,1,931,ff593857fc2a782627c4b16de5e0117d
4,397,91,64,4,4,1,849,ff593857fc2a782627c4b16de5e0117d
4,398,28,91,2,2,1,850,ff593857fc2a782627c4b16de5e0117d
4,399,55,55,4,3,0,1992,ff593857fc2a782627c4b16de5e0117d
4,0,10,28,1,1,1,1809,f12de505c1a3d1472f43f00ac8fb0e93
4,1,55,73,4,1,0,1300,f12de505c1a3d1472f43f00ac8fb0e93
4,2,37,10,1,4,0,996,f12de505c1a3d1472f43f00ac8fb0e93
4,3,64,28,3,3,1,1355,f12de505c1a3d1472f43f00ac8fb0e93
4,4,10,73,2,3,0,1281,f12de505c1a3d1472f43f00ac8fb0e93
4,5,10,55,2,1,0,1235,f12de505c1a3d1472f43f00ac8fb0e93
4,6,10,37,1,2,0,1180,f12de505c1a3d1472f43f00ac8fb0e93
4,7,10,82,2,1,0,2145,f12de505c1a3d1472f43f00ac8fb0e93
4,8,55,28,3,3,1,1399,f12de505c1a3d1472f43f00ac8fb0e93
4,9,91,91,4,1,0,1676,f12de505c1a3d1472f43f00ac8fb0e93
4,10,82,28,3,4,0,979,f12de505c1a3d1472f43f00ac8fb0e93
4,11,46,46,1,2,0,1807,f12de505c1a3d1472f43f00ac8fb0e93
4,12,10,19,1,1,1,1364,f12de505c1a3d1472f43f00ac8fb0e93
4,13,73,19,3,3,1,1305,f12de505c1a3d1472f43f00ac8fb0e93
4,14,37,55,2,2,1,1204,f12de505c1a3d1472f43f00ac8fb0e93
4,15,19,10,1,1,1,1045,f12de505c1a3d1472f43f00ac8fb0e93
4,16,28,64,2,2,1,1087,f12de505c1a3d1472f43f00ac8fb0e93
4,17,19,64,2,2,1,930,f12de505c1a3d1472f43f00ac8fb0e93
4,18,64,64,4,2,0,769,f12de505c1a3d1472f43f00ac8fb0e93
4,19,37,28,1,1,1,1010,f12de505c1a3d1472f43f00ac8fb0e93
4,20,46,73,2,3,0,1221,f12de505c1a3d1472f43f00ac8fb0e93
4,21,73,10,3,4,0,1255,f12de505c1a3d1472f43f00ac8fb0e93
4,22,46,10,1,3,0,768,f12de505c1a3d1472f43f00ac8fb0e93
4,23,19,46,1,2,0,1347,f12de505c1a3d1472f43f00ac8fb0e93
4,24,73,91,4,4,1,1109,f12de505c1a3d1472f43f00ac8fb0e93
4,25,28,37,1,3,0,1016,f12de505c1a3d1472f43f00ac8fb0e93
4,26,28,10,1,1,1,1781,f12de505c1a3d1472f43f00ac8fb0e93
4,27,46,19,1,1,1,937,f12de505c1a3d1472f43f00ac8fb0e93
4,28,82,10,3,1,0,880,f12de505c1a3d1472f43f00ac8fb0e93
4,29,46,37,1,2,0,1329,f12de505c1a3d1472f43f00ac8fb0e93
4,30,82,91,4,4,1,1120,f12de505c1a3d1472f43f00ac8fb0e93
4,31,37,46,1,3,0,1122,f12de505c1a3d1472f43f00ac8fb0e93
4,32,64,46,3,1,0,1135,f12de505c1a3d1472f43f00ac8fb0e93
4,33,64,73,4,2,0,920,f12de505c1a3d1472f43f00ac8fb0e93
4,34,82,37,3,4,0,1402,f12de505c1a3d1472f43f00ac8fb0e93
4,35,46,64,2,3,0,826,f12de505c1a3d1472f43f00ac8fb0e93
4,36,91,37,3,2,0,1657,f12de505c1a3d1472f43f00ac8fb0e93
4,37,82,73,4,3,0,999,f12de505c1a3d1472f43f00ac8fb0e93
4,38,37,82,2,4,0,1096,f12de505c1a3d1472f43f00ac8fb0e93
4,39,28,46,1,1,1,1226,f12de505c1a3d1472f43f00ac8fb0e93
4,40,82,82,4,3,0,1478,f12de505c1a3d1472f43f00ac8fb0e93
4,41,55,37,3,3,1,1031,f12de505c1a3d1472f43f00ac8fb0e93
4,42,19,37,1,1,1,1142,f12de505c1a3d1472f43f00ac8fb0e93
4,43,19,28,1,1,1,1047,f12de505c1a3d1472f43f00ac8fb0e93
4,44,46,55,2,2,1,1269,f12de505c1a3d1472f43f00ac8fb0e93
4,45,19,82,2,2,1,1443,f12de505c1a3d1472f43f00ac8fb0e93
4,46,28,28,1,1,1,1278,f12de505c1a3d1472f43f00ac8fb0e93
4,47,19,73,2,1,0,1162,f12de505c1a3d1472f43f00ac8fb0e93
4,48,73,55,4,3,0,1176,f12de505c1a3d1472f43f00ac8fb0e93
4,49,91,73,4,4,1,942,f12de505c1a3d1472f43f00ac8fb0e93
4,50,91,82,4,4,1,1126,f12de505c1a3d1472f43f00ac8fb0e93
4,51,73,64,4,3,0,918,f12de505c1a3d1472f43f00ac8fb0e93
4,52,91,64,4,4,1,1090,f12de505c1a3d1472f43f00ac8fb0e93
4,53,55,82,4,4,1,1391,f12de505c1a3d1472f43f00ac8fb0e93
4,54,73,46,3,3,1,1070,f12de505c1a3d1472f43f00ac8fb0e93
4,55,55,19,3,3,1,1138,f12de505c1a3d1472f43f00ac8fb0e93
4,56,10,64,2,1,0,1111,f12de505c1a3d1472f43f00ac8fb0e93
4,57,37,73,2,2,1,768,f12de505c1a3d1472f43f00ac8fb0e93
4,58,55,91,4,2,0,1329,f12de505c1a3d1472f43f00ac8fb0e93
4,59,55,64,4,3,0,1289,f12de505c1a3d1472f43f00ac8fb0e93
4,60,46,28,1,3,0,1079,f12de505c1a3d1472f43f00ac8fb0e93
4,61,37,91,2,2,1,1126,f12de505c1a3d1472f43f00ac8fb0e93
4,62,91,10,3,3,1,1155,f12de505c1a3d1472f43f00ac8fb0e93
4,63,91,19,3,3,1,1131,f12de505c1a3d1472f43f00ac8fb0e93
4,64,64,37,3,3,1,1216,f12de505c1a3d1472f43f00ac8fb0e93
4,65,28,82,2,1,0,1242,f12de505c1a3d1472f43f00ac8fb0e93
4,66,82,64,4,2,0,1388,f12de505c1a3d1472f43f00ac8fb0e93
4,67,55,10,3,3,1,1152,f12de505c1a3d1472f43f00ac8fb0e93
4,68,91,28,3,4,0,1574,f12de505c1a3d1472f43f00ac8fb0e93
4,69,37,37,1,2,0,1226,f12de505c1a3d1472f43f00ac8fb0e93
4,70,82,19,3,3,1,947,f12de505c1a3d1472f43f00ac8fb0e93
4,71,10,10,1,1,1,931,f12de505c1a3d1472f43f00ac8fb0e93
4,72,64,10,3,2,0,1061,f12de505c1a3d1472f43f00ac8fb0e93
4,73,19,55,2,2,1,799,f12de505c1a3d1472f43f00ac8fb0e93
4,74,37,19,1,2,0,875,f12de505c1a3d1472f43f00ac8fb0e93
4,75,28,91,2,1,0,918,f12de505c1a3d1472f43f00ac8fb0e93
4,76,64,91,4,3,0,1416,f12de505c1a3d1472f43f00ac8fb0e93
4,77,55,46,3,3,1,964,f12de505c1a3d1472f43f00ac8fb0e93
4,78,64,55,4,2,0,1792,f12de505c1a3d1472f43f00ac8fb0e93
4,79,46,91,2,3,0,1012,f12de505c1a3d1472f43f00ac8fb0e93
4,80,82,55,4,1,0,1088,f12de505c1a3d1472f43f00ac8fb0e93
4,81,82,46,3,4,0,1150,f12de505c1a3d1472f43f00ac8fb0e93
4,82,46,82,2,2,1,1186,f12de505c1a3d1472f43f00ac8fb0e93
4,83,28,55,2,2,1,979,f12de505c1a3d1472f43f00ac8fb0e93
4,84,28,73,2,1,0,841,f12de505c1a3d1472f43f00ac8fb0e93
4,85,28,19,1,1,1,635,f12de505c1a3d1472f43f00ac8fb0e93
4,86,91,55,4,4,1,1451,f12de505c1a3d1472f43f00ac8fb0e93
4,87,19,19,1,1,1,1196,f12de505c1a3d1472f43f00ac8fb0e93
4,88,37,64,2,2,1,927,f12de505c1a3d1472f43f00ac8fb0e93
4,89,73,73,4,3,0,1384,f12de505c1a3d1472f43f00ac8fb0e93
4,90,10,91,2,1,0,910,f12de505c1a3d1472f43f00ac8fb0e93
4,91,91,46,3,3,1,847,f12de505c1a3d1472f43f00ac8fb0e93
4,92,10,46,1,1,1,841,f12de505c1a3d1472f43f00ac8fb0e93
4,93,73,37,3,2,0,1392,f12de505c1a3d1472f43f00ac8fb0e93
4,94,64,19,3,3,1,1322,f12de505c1a3d1472f43f00ac8fb0e93
4,95,64,82,4,3,0,918,f12de505c1a3d1472f43f00ac8fb0e93
4,96,73,28,3,3,1,784,f12de505c1a3d1472f43f00ac8fb0e93
4,97,73,82,4,3,0,857,f12de505c1a3d1472f43f00ac8fb0e93
4,98,19,91,2,1,0,646,f12de505c1a3d1472f43f00ac8fb0e93
4,99,55,55,4,2,0,1182,f12de505c1a3d1472f43f00ac8fb0e93
4,100,55,37,3,3,1,935,f12de505c1a3d1472f43f00ac8fb0e93
4,101,37,28,1,1,1,1221,f12de505c1a3d1472f43f00ac8fb0e93
4,102,46,82,2,1,0,934,f12de505c1a3d1472f43f00ac8fb0e93
4,103,10,73,2,1,0,935,f12de505c1a3d1472f43f00ac8fb0e93
4,104,64,55,4,2,0,1237,f12de505c1a3d1472f43f00ac8fb0e93
4,105,73,64,4,3,0,1133,f12de505c1a3d1472f43f00ac8fb0e93
4,106,82,91,4,4,1,901,f12de505c1a3d1472f43f00ac8fb0e93
4,107,46,46,1,2,0,1100,f12de505c1a3d1472f43f00ac8fb0e93
4,108,28,46,1,1,1,731,f12de505c1a3d1472f43f00ac8fb0e93
4,109,28,64,2,1,0,868,f12de505c1a3d1472f43f00ac8fb0e93
4,110,91,55,4,3,0,970,f12de505c1a3d1472f43f00ac8fb0e93
4,111,73,10,3,2,0,1013,f12de505c1a3d1472f43f00ac8fb0e93
4,112,46,37,1,1,1,846,f12de505c1a3d1472f43f00ac8fb0e93
4,113,10,82,2,1,0,928,f12de505c1a3d1472f43f00ac8fb0e93
4,114,91,46,3,3,1,1466,f12de505c1a3d1472f43f00ac8fb0e93
4,115,19,64,2,1,0,1442,f12de505c1a3d1472f43f00ac8fb0e93
4,116,55,73,4,2,0,1168,f12de505c1a3d1472f43f00ac8fb0e93
4,117,10,37,1,1,1,822,f12de505c1a3d1472f43f00ac8fb0e93
4,118,19,73,2,2,1,983,f12de505c1a3d1472f43f00ac8fb0e93
4,119,10,46,1,1,1,1655,f12de505c1a3d1472f43f00ac8fb0e93
4,120,37,37,1,2,0,716,f12de505c1a3d1472f43f00ac8fb0e93
4,121,91,19,3,4,0,1117,f12de505c1a3d1472f43f00ac8fb0e93
4,122,37,82,2,2,1,1753,f12de505c1a3d1472f43f00ac8fb0e93
4,123,73,19,3,3,1,1130,f12de505c1a3d1472f43f00ac8fb0e93
4,124,64,91,4,3,0,975,f12de505c1a3d1472f43f00ac8fb0e93
4,125,64,19,3,3,1,833,f12de505c1a3d1472f43f00ac8fb0e93
4,126,37,64,2,2,1,1228,f12de505c1a3d1472f43f00ac8fb0e93
4,127,82,10,3,4,0,1804,f12de505c1a3d1472f43f00ac8fb0e93
4,128,37,10,1,2,0,982,f12de505c1a3d1472f43f00ac8fb0e93
4,129,91,28,3,4,0,1615,f12de505c1a3d1472f43f00ac8fb0e93
4,130,10,19,1,1,1,736,f12de505c1a3d1472f43f00ac8fb0e93
4,131,55,64,4,2,0,905,f12de505c1a3d1472f43f00ac8fb0e93
4,132,91,64,4,3,0,743,f12de505c1a3d1472f43f00ac8fb0e93
4,133,64,64,4,3,0,825,f12de505c1a3d1472f43f00ac8fb0e93
4,134,64,37,3,4,0,844,f12de505c1a3d1472f43f00ac8fb0e93
4,135,19,46,1,1,1,816,f12de505c1a3d1472f43f00ac8fb0e93
4,136,10,55,2,1,0,875,f12de505c1a3d1472f43f00ac8fb0e93
4,137,73,46,3,3,1,710,f12de505c1a3d1472f43f00ac8fb0e93
4,138,55,10,3,3,1,1062,f12de505c1a3d1472f43f00ac8fb0e93
4,139,55,46,3,3,1,1160,f12de505c1a3d1472f43f00ac8fb0e93
4,140,19,37,1,1,1,809,f12de505c1a3d1472f43f00ac8fb0e93
4,141,37,19,1,2,0,1029,f12de505c1a3d1472f43f00ac8fb0e93
4,142,37,73,2,1,0,951,f12de505c1a3d1472f43f00ac8fb0e93
4,143,46,19,1,2,0,1406,f12de505c1a3d1472f43f00ac8fb0e93
4,144,73,28,3,3,1,846,f12de505c1a3d1472f43f00ac8fb0e93
4,145,10,10,1,1,1,658,f12de505c1a3d1472f43f00ac8fb0e93
4,146,82,73,4,3,0,1149,f12de505c1a3d1472f43f00ac8fb0e93
4,147,82,82,4,4,1,1087,f12de505c1a3d1472f43f00ac8fb0e93
4,148,46,10,1,2,0,1404,f12de505c1a3d1472f43f00ac8fb0e93
4,149,64,82,4,3,0,1126,f12de505c1a3d1472f43f00ac8fb0e93
4,150,64,10,3,3,1,1345,f12de505c1a3d1472f43f00ac8fb0e93
4,151,73,91,4,4,1,1618,f12de505c1a3d1472f43f00ac8fb0e93
4,152,28,28,1,2,0,1428,f12de505c1a3d1472f43f00ac8fb0e93
4,153,91,82,4,4,1,1458,f12de505c1a3d1472f43f00ac8fb0e93
4,154,19,91,2,3,0,1454,f12de505c1a3d1472f43f00ac8fb0e93
4,155,28,19,1,2,0,1225,f12de505c1a3d1472f43f00ac8fb0e93
4,156,73,82,4,3,0,1013,f12de505c1a3d1472f43f00ac8fb0e93
4,157,28,10,1,1,1,866,f12de505c1a3d1472f43f00ac8fb0e93
4,158,46,55,2,2,1,949,f12de505c1a3d1472f43f00ac8fb0e93
4,159,73,55,4,2,0,1265,f12de505c1a3d1472f43f00ac8fb0e93
4,160,28,91,2,4,0,1057,f12de505c1a3d1472f43f00ac8fb0e93
4,161,82,37,3,3,1,829,f12de505c1a3d1472f43f00ac8fb0e93
4,162,82,19,3,3,1,763,f12de505c1a3d1472f43f00ac8fb0e93
4,163,19,55,2,2,1,846,f12de505c1a3d1472f43f00ac8fb0e93
4,164,10,64,2,3,0,815,f12de505c1a3d1472f43f00ac8fb0e93
4,165,91,91,4,3,0,859,f12de505c1a3d1472f43f00ac8fb0e93
4,166,91,73,4,3,0,806,f12de505c1a3d1472f43f00ac8fb0e93
4,167,64,73,4,3,0,846,f12de505c1a3d1472f43f00ac8fb0e93
4,168,55,19,3,2,0,974,f12de505c1a3d1472f43f00ac8fb0e93
4,169,19,28,1,1,1,773,f12de505c1a3d1472f43f00ac8fb0e93
4,170,91,37,3,3,1,886,f12de505c1a3d1472f43f00ac8fb0e93
4,171,64,46,3,3,1,747,f12de505c1a3d1472f43f00ac8fb0e93
4,172,73,73,4,3,0,890,f12de505c1a3d1472f43f00ac8fb0e93
4,173,37,46,1,2,0,927,f12de505c1a3d1472f43f00ac8fb0e93
4,174,19,82,2,1,0,772,f12de505c1a3d1472f43f00ac8fb0e93
4,175,73,37,3,3,1,719,f12de505c1a3d1472f43f00ac8fb0e93
4,176,91,10,3,2,0,920,f12de505c1a3d1472f43f00ac8fb0e93
4,177,55,28,3,3,1,896,f12de505c1a3d1472f43f00ac8fb0e93
4,178,82,46,3,3,1,1171,f12de505c1a3d1472f43f00ac8fb0e93
4,179,37,91,2,1,0,910,f12de505c1a3d1472f43f00ac8fb0e93
4,180,19,19,1,1,1,676,f12de505c1a3d1472f43f00ac8fb0e93
4,181,64,28,3,2,0,942,f12de505c1a3d1472f43f00ac8fb0e93
4,182,28,82,2,1,0,788,f12de505c1a3d1472f43f00ac8fb0e93
4,183,10,91,2,1,0,661,f12de505c1a3d1472f43f00ac8fb0e93
4,184,55,91,4,3,0,665,f12de505c1a3d1472f43f00ac8fb0e93
4,185,28,73,2,1,0,640,f12de505c1a3d1472f43f00ac8fb0e93
4,186,46,91,2,2,1,903,f12de505c1a3d1472f43f00ac8fb0e93
4,187,46,28,1,2,0,996,f12de505c1a3d1472f43f00ac8fb0e93
4,188,10,28,1,1,1,715,f12de505c1a3d1472f43f00ac8fb0e93
4,189,46,73,2,1,0,1062,f12de505c1a3d1472f43f00ac8fb0e93
4,190,28,55,2,3,0,1093,f12de505c1a3d1472f43f00ac8fb0e93
4,191,82,64,4,2,0,1143,f12de505c1a3d1472f43f00ac8fb0e93
4,192,55,82,4,1,0,1356,f12de505c1a3d1472f43f00ac8fb0e93
4,193,82,55,4,2,0,983,f12de505c1a3d1472f43f00ac8fb0e93
4,194,28,37,1,3,0,807,f12de505c1a3d1472f43f00ac8fb0e93
4,195,82,28,3,3,1,848,f12de505c1a3d1472f43f00ac8fb0e93
4,196,19,10,1,1,1,687,f12de505c1a3d1472f43f00ac8fb0e93
4,197,46,64,2,2,1,664,f12de505c1a3d1472f43f00ac8fb0e93
4,198,37,55,2,2,1,910,f12de505c1a3d1472f43f00ac8fb0e93
4,199,55,55,4,2,0,973,f12de505c1a3d1472f43f00ac8fb0e93
4,200,19,10,1,1,1,657,f12de505c1a3d1472f43f00ac8fb0e93
4,201,82,37,3,3,1,832,f12de505c1a3d1472f43f00ac8fb0e93
4,202,91,82,4,4,1,1045,f12de505c1a3d1472f43f00ac8fb0e93
4,203,91,46,3,3,1,893,f12de505c1a3d1472f43f00ac8fb0e93
4,204,28,55,2,2,1,986,f12de505c1a3d1472f43f00ac8fb0e93
4,205,64,73,4,3,0,897,f12de505c1a3d1472f43f00ac8fb0e93
4,206,28,64,2,2,1,1017,f12de505c1a3d1472f43f00ac8fb0e93
4,207,55,10,3,3,1,950,f12de505c1a3d1472f43f00ac8fb0e93
4,208,28,10,1,1,1,1030,f12de505c1a3d1472f43f00ac8fb0e93
4,209,82,64,4,3,0,972,f12de505c1a3d1472f43f00ac8fb0e93
4,210,73,73,4,3,0,949,f12de505c1a3d1472f43f00ac8fb0e93
4,211,55,55,4,4,1,980,f12de505c1a3d1472f43f00ac8fb0e93
4,212,64,37,3,4,0,834,f12de505c1a3d1472f43f00ac8fb0e93
4,213,91,55,4,3,0,1062,f12de505c1a3d1472f43f00ac8fb0e93
4,214,37,10,1,2,0,1102,f12de505c1a3d1472f43f00ac8fb0e93
4,215,55,73,4,4,1,944,f12de505c1a3d1472f43f00ac8fb0e93
4,216,28,19,1,1,1,788,f12de505c1a3d1472f43f00ac8fb0e93
4,217,19,37,1,1,1,790,f12de505c1a3d1472f43f00ac8fb0e93
4,218,73,10,3,3,1,992,f12de505c1a3d1472f43f00ac8fb0e93
4,219,10,91,2,1,0,890,f12de505c1a3d1472f43f00ac8fb0e93
4,220,19,73,2,1,0,1205,f12de505c1a3d1472f43f00ac8fb0e93
4,221,55,64,4,2,0,1180,f12de505c1a3d1472f43f00ac8fb0e93
4,222,64,28,3,2,0,1915,f12de505c1a3d1472f43f00ac8fb0e93
4,223,55,37,3,3,1,925,f12de505c1a3d1472f43f00ac8fb0e93
4,224,55,19,3,2,0,1809,f12de505c1a3d1472f43f00ac8fb0e93
4,225,19,19,1,1,1,765,f12de505c1a3d1472f43f00ac8fb0e93
4,226,46,28,1,2,0,1348,f12de505c1a3d1472f43f00ac8fb0e93
4,227,55,46,3,2,0,979,f12de505c1a3d1472f43f00ac8fb0e93
4,228,10,19,1,1,1,791,f12de505c1a3d1472f43f00ac8fb0e93
4,229,10,55,2,1,0,651,f12de505c1a3d1472f43f00ac8fb0e93
4,230,19,46,1,1,1,754,f12de505c1a3d1472f43f00ac8fb0e93
4,231,82,91,4,3,0,913,f12de505c1a3d1472f43f00ac8fb0e93
4,232,64,46,3,3,1,919,f12de505c1a3d1472f43f00ac8fb0e93
4,233,37,37,1,2,0,991,f12de505c1a3d1472f43f00ac8fb0e93
4,234,55,82,4,3,0,1013,f12de505c1a3d1472f43f00ac8fb0e93
4,235,73,19,3,2,0,1367,f12de505c1a3d1472f43f00ac8fb0e93
4,236,55,28,3,3,1,991,f12de505c1a3d1472f43f00ac8fb0e93
4,237,46,19,1,1,1,1062,f12de505c1a3d1472f43f00ac8fb0e93
4,238,37,46,1,3,0,1453,f12de505c1a3d1472f43f00ac8fb0e93
4,239,46,64,2,2,1,822,f12de505c1a3d1472f43f00ac8fb0e93
4,240,28,91,2,1,0,1592,f12de505c1a3d1472f43f00ac8fb0e93
4,241,19,82,2,3,0,1735,f12de505c1a3d1472f43f00ac8fb0e93
4,242,91,10,3,3,1,1996,f12de505c1a3d1472f43f00ac8fb0e93
4,243,10,64,2,1,0,824,f12de505c1a3d1472f43f00ac8fb0e93
4,244,64,19,3,3,1,2276,f12de505c1a3d1472f43f00ac8fb0e93
4,245,10,10,1,1,1,749,f12de505c1a3d1472f43f00ac8fb0e93
4,246,91,28,3,2,0,1763,f12de505c1a3d1472f43f00ac8fb0e93
4,247,73,55,4,3,0,1002,f12de505c1a3d1472f43f00ac8fb0e93
4,248,82,28,3,3,1,963,f12de505c1a3d1472f43f00ac8fb0e93
4,249,28,82,2,2,1,1167,f12de505c1a3d1472f43f00ac8fb0e93
4,250,73,91,4,3,0,1158,f12de505c1a3d1472f43f00ac8fb0e93
4,251,46,55,2,4,0,1600,f12de505c1a3d1472f43f00ac8fb0e93
4,252,10,37,1,1,1,690,f12de505c1a3d1472f43f00ac8fb0e93
4,253,55,91,4,3,0,1770,f12de505c1a3d1472f43f00ac8fb0e93
4,254,82,55,4,4,1,851,f12de505c1a3d1472f43f00ac8fb0e93
4,255,46,46,1,4,0,917,f12de505c1a3d1472f43f00ac8fb0e93
4,256,37,64,2,4,0,1306,f12de505c1a3d1472f43f00ac8fb0e93
4,257,82,82,4,3,0,1188,f12de505c1a3d1472f43f00ac8fb0e93
4,258,82,46,3,1,0,1205,f12de505c1a3d1472f43f00ac8fb0e93
4,259,28,46,1,2,0,965,f12de505c1a3d1472f43f00ac8fb0e93
4,260,91,19,3,3,1,812,f12de505c1a3d1472f43f00ac8fb0e93
4,261,91,73,4,3,0,897,f12de505c1a3d1472f43f00ac8fb0e93
4,262,82,19,3,2,0,974,f12de505c1a3d1472f43f00ac8fb0e93
4,263,19,91,2,1,0,674,f12de505c1a3d1472f43f00ac8fb0e93
4,264,10,46,1,1,1,637,f12de505c1a3d1472f43f00ac8fb0e93
4,265,64,82,4,3,0,717,f12de505c1a3d1472f43f00ac8fb0e93
4,266,73,28,3,4,0,946,f12de505c1a3d1472f43f00ac8fb0e93
4,267,64,91,4,2,0,941,f12de505c1a3d1472f43f00ac8fb0e93
4,268,37,55,2,1,0,695,f12de505c1a3d1472f43f00ac8fb0e93
4,269,28,28,1,1,1,878,f12de505c1a3d1472f43f00ac8fb0e93
4,270,10,73,2,1,0,755,f12de505c1a3d1472f43f00ac8fb0e93
4,271,91,64,4,2,0,877,f12de505c1a3d1472f43f00ac8fb0e93
4,272,64,55,4,3,0,777,f12de505c1a3d1472f43f00ac8fb0e93
4,273,28,73,2,2,1,870,f12de505c1a3d1472f43f00ac8fb0e93
4,274,46,73,2,3,0,1124,f12de505c1a3d1472f43f00ac8fb0e93
4,275,19,55,2,2,1,1513,f12de505c1a3d1472f43f00ac8fb0e93
4,276,10,28,1,1,1,977,f12de505c1a3d1472f43f00ac8fb0e93
4,277,19,28,1,1,1,959,f12de505c1a3d1472f43f00ac8fb0e93
4,278,46,10,1,1,1,2395,f12de505c1a3d1472f43f00ac8fb0e93
4,279,91,37,3,3,1,1157,f12de505c1a3d1472f43f00ac8fb0e93
4,280,73,37,3,3,1,1017,f12de505c1a3d1472f43f00ac8fb0e93
4,281,37,73,2,3,0,1551,f12de505c1a3d1472f43f00ac8fb0e93
4,282,64,10,3,1,0,640,f12de505c1a3d1472f43f00ac8fb0e93
4,283,28,37,1,1,1,680,f12de505c1a3d1472f43f00ac8fb0e93
4,284,19,64,2,1,0,1146,f12de505c1a3d1472f43f00ac8fb0e93
4,285,82,73,4,2,0,745,f12de505c1a3d1472f43f00ac8fb0e93
4,286,46,82,2,3,0,2637,f12de505c1a3d1472f43f00ac8fb0e93
4,287,91,91,4,3,0,893,f12de505c1a3d1472f43f00ac8fb0e93
4,288,37,91,2,3,0,1331,f12de505c1a3d1472f43f00ac8fb0e93
4,289,10,82,2,1,0,786,f12de505c1a3d1472f43f00ac8fb0e93
4,290,82,10,3,1,0,1407,f12de505c1a3d1472f43f00ac8fb0e93
4,291,37,19,1,3,0,765,f12de505c1a3d1472f43f00ac8fb0e93
4,292,46,37,1,2,0,919,f12de505c1a3d1472f43f00ac8fb0e93
4,293,37,28,1,1,1,682,f12de505c1a3d1472f43f00ac8fb0e93
4,294,46,91,2,1,0,699,f12de505c1a3d1472f43f00ac8fb0e93
4,295,64,64,4,2,0,706,f12de505c1a3d1472f43f00ac8fb0e93
4,296,37,82,2,1,0,714,f12de505c1a3d1472f43f00ac8fb0e93
4,297,73,46,3,3,1,1276,f12de505c1a3d1472f43f00ac8fb0e93
4,298,73,82,4,3,0,829,f12de505c1a3d1472f43f00ac8fb0e93
4,299,73,64,4,2,0,797,f12de505c1a3d1472f43f00ac8fb0e93
4,300,28,73,2,1,0,695,f12de505c1a3d1472f43f00ac8fb0e93
4,301,10,10,1,1,1,925,f12de505c1a3d1472f43f00ac8fb0e93
4,302,82,19,3,3,1,894,f12de505c1a3d1472f43f00ac8fb0e93
4,303,64,73,4,3,0,657,f12de505c1a3d1472f43f00ac8fb0e93
4,304,91,73,4,3,0,896,f12de505c1a3d1472f43f00ac8fb0e93
4,305,37,46,1,1,1,763,f12de505c1a3d1472f43f00ac8fb0e93
4,306,73,91,4,2,0,928,f12de505c1a3d1472f43f00ac8fb0e93
4,307,91,55,4,3,0,916,f12de505c1a3d1472f43f00ac8fb0e93
4,308,28,55,2,1,0,642,f12de505c1a3d1472f43f00ac8fb0e93
4,309,55,46,3,2,0,659,f12de505c1a3d1472f43f00ac8fb0e93
4,310,10,19,1,1,1,645,f12de505c1a3d1472f43f00ac8fb0e93
4,311,73,19,3,3,1,855,f12de505c1a3d1472f43f00ac8fb0e93
4,312,91,19,3,2,0,881,f12de505c1a3d1472f43f00ac8fb0e93
4,313,91,28,3,3,1,612,f12de505c1a3d1472f43f00ac8fb0e93
4,314,37,10,1,1,1,846,f12de505c1a3d1472f43f00ac8fb0e93
4,315,64,10,3,2,0,1044,f12de505c1a3d1472f43f00ac8fb0e93
4,316,55,55,4,3,0,653,f12de505c1a3d1472f43f00ac8fb0e93
4,317,37,28,1,1,1,759,f12de505c1a3d1472f43f00ac8fb0e93
4,318,28,91,2,1,0,705,f12de505c1a3d1472f43f00ac8fb0e93
4,319,73,55,4,2,0,771,f12de505c1a3d1472f43f00ac8fb0e93
4,320,19,82,2,3,0,854,f12de505c1a3d1472f43f00ac8fb0e93
4,321,73,46,3,3,1,1035,f12de505c1a3d1472f43f00ac8fb0e93
4,322,28,10,1,1,1,948,f12de505c1a3d1472f43f00ac8fb0e93
4,323,37,91,2,2,1,1703,f12de505c1a3d1472f43f00ac8fb0e93
4,324,55,28,3,2,0,1429,f12de505c1a3d1472f43f00ac8fb0e93
4,325,28,64,2,1,0,746,f12de505c1a3d1472f43f00ac8fb0e93
4,326,37,73,2,2,1,728,f12de505c1a3d1472f43f00ac8fb0e93
4,327,64,28,3,2,0,1974,f12de505c1a3d1472f43f00ac8fb0e93
4,328,46,73,2,2,1,1071,f12de505c1a3d1472f43f00ac8fb0e93
4,329,37,82,2,2,1,1070,f12de505c1a3d1472f43f00ac8fb0e93
4,330,82,37,3,3,1,1076,f12de505c1a3d1472f43f00ac8fb0e93
4,331,64,55,4,2,0,1448,f12de505c1a3d1472f43f00ac8fb0e93
4,332,73,28,3,3,1,1196,f12de505c1a3d1472f43f00ac8fb0e93
4,333,19,73,2,2,1,1288,f12de505c1a3d1472f43f00ac8fb0e93
4,334,91,46,3,3,1,1167,f12de505c1a3d1472f43f00ac8fb0e93
4,335,64,46,3,3,1,1080,f12de505c1a3d1472f43f00ac8fb0e93
4,336,10,46,1,1,1,1600,f12de505c1a3d1472f43f00ac8fb0e93
4,337,46,28,1,2,0,1303,f12de505c1a3d1472f43f00ac8fb0e93
4,338,82,91,4,4,1,1954,f12de505c1a3d1472f43f00ac8fb0e93
4,339,55,19,3,2,0,1303,f12de505c1a3d1472f43f00ac8fb0e93
4,340,91,91,4,4,1,1168,f12de505c1a3d1472f43f00ac8fb0e93
4,341,82,28,3,3,1,1229,f12de505c1a3d1472f43f00ac8fb0e93
4,342,19,37,1,1,1,1240,f12de505c1a3d1472f43f00ac8fb0e93
4,343,55,37,3,3,1,1173,f12de505c1a3d1472f43f00ac8fb0e93
4,344,46,19,1,2,0,1547,f12de505c1a3d1472f43f00ac8fb0e93
4,345,46,64,2,2,1,887,f12de505c1a3d1472f43f00ac8fb0e93
4,346,19,19,1,1,1,1069,f12de505c1a3d1472f43f00ac8fb0e93
4,347,46,46,1,2,0,978,f12de505c1a3d1472f43f00ac8fb0e93
4,348,73,37,3,3,1,790,f12de505c1a3d1472f43f00ac8fb0e93
4,349,55,64,4,2,0,853,f12de505c1a3d1472f43f00ac8fb0e93
4,350,64,82,4,3,0,720,f12de505c1a3d1472f43f00ac8fb0e93
4,351,64,64,4,2,0,877,f12de505c1a3d1472f43f00ac8fb0e93
4,352,10,82,2,1,0,1709,f12de505c1a3d1472f43f00ac8fb0e93
4,353,73,10,3,3,1,819,f12de505c1a3d1472f43f00ac8fb0e93
4,354,28,28,1,1,1,1223,f12de505c1a3d1472f43f00ac8fb0e93
4,355,82,82,4,3,0,914,f12de505c1a3d1472f43f00ac8fb0e93
4,356,64,91,4,3,0,966,f12de505c1a3d1472f43f00ac8fb0e93
4,357,37,37,1,2,0,883,f12de505c1a3d1472f43f00ac8fb0e93
4,358,82,46,3,3,1,809,f12de505c1a3d1472f43f00ac8fb0e93
4,359,82,73,4,3,0,1145,f12de505c1a3d1472f43f00ac8fb0e93
4,360,82,55,4,2,0,822,f12de505c1a3d1472f43f00ac8fb0e93
4,361,46,82,2,3,0,1366,f12de505c1a3d1472f43f00ac8fb0e93
4,362,82,10,3,3,1,714,f12de505c1a3d1472f43f00ac8fb0e93
4,363,10,55,2,1,0,1011,f12de505c1a3d1472f43f00ac8fb0e93
4,364,19,10,1,1,1,664,f12de505c1a3d1472f43f00ac8fb0e93
4,365,64,19,3,1,0,1166,f12de505c1a3d1472f43f00ac8fb0e93
4,366,55,82,4,3,0,634,f12de505c1a3d1472f43f00ac8fb0e93
4,367,73,64,4,3,0,1023,f12de505c1a3d1472f43f00ac8fb0e93
4,368,37,19,1,1,1,796,f12de505c1a3d1472f43f00ac8fb0e93
4,369,10,64,2,2,1,1122,f12de505c1a3d1472f43f00ac8fb0e93
4,370,28,19,1,1,1,686,f12de505c1a3d1472f43f00ac8fb0e93
4,371,19,55,2,2,1,604,f12de505c1a3d1472f43f00ac8fb0e93
4,372,19,91,2,3,0,2422,f12de505c1a3d1472f43f00ac8fb0e93
4,373,73,73,4,3,0,812,f12de505c1a3d1472f43f00ac8fb0e93
4,374,91,82,4,4,1,1014,f12de505c1a3d1472f43f00ac8fb0e93
4,375,73,82,4,4,1,963,f12de505c1a3d1472f43f00ac8fb0e93
4,376,10,91,2,2,1,1302,f12de505c1a3d1472f43f00ac8fb0e93
4,377,19,46,1,3,0,908,f12de505c1a3d1472f43f00ac8fb0e93
4,378,10,37,1,1,1,740,f12de505c1a3d1472f43f00ac8fb0e93
4,379,46,91,2,2,1,1956,f12de505c1a3d1472f43f00ac8fb0e93
4,380,55,73,4,3,0,1724,f12de505c1a3d1472f43f00ac8fb0e93
4,381,28,82,2,2,1,1195,f12de505c1a3d1472f43f00ac8fb0e93
4,382,37,64,2,2,1,979,f12de505c1a3d1472f43f00ac8fb0e93
4,383,82,64,4,3,0,864,f12de505c1a3d1472f43f00ac8fb0e93
4,384,19,28,1,1,1,1411,f12de505c1a3d1472f43f00ac8fb0e93
4,385,55,91,4,3,0,1489,f12de505c1a3d1472f43f00ac8fb0e93
4,386,10,73,2,1,0,832,f12de505c1a3d1472f43f00ac8fb0e93
4,387,46,37,1,2,0,801,f12de505c1a3d1472f43f00ac8fb0e93
4,388,10,28,1,1,1,681,f12de505c1a3d1472f43f00ac8fb0e93
4,389,28,46,1,2,0,1266,f12de505c1a3d1472f43f00ac8fb0e93
4,390,55,10,3,3,1,1427,f12de505c1a3d1472f43f00ac8fb0e93
4,391,91,10,3,3,1,986,f12de505c1a3d1472f43f00ac8fb0e93
4,392,91,37,3,3,1,1074,f12de505c1a3d1472f43f00ac8fb0e93
4,393,91,64,4,4,1,890,f12de505c1a3d1472f43f00ac8fb0e93
4,394,28,37,1,2,0,1300,f12de505c1a3d1472f43f00ac8fb0e93
4,395,37,55,2,2,1,872,f12de505c1a3d1472f43f00ac8fb0e93
4,396,64,37,3,3,1,1020,f12de505c1a3d1472f43f00ac8fb0e93
4,397,46,55,2,2,1,1211,f12de505c1a3d1472f43f00ac8fb0e93
4,398,19,64,2,2,1,1354,f12de505c1a3d1472f43f00ac8fb0e93
4,399,46,10,1,1,1,1643,f12de505c1a3d1472f43f00ac8fb0e93
4,0,19,19,1,1,1,717,da853a5711f2861c152dc83fc98c3963
4,1,64,73,4,2,0,1052,da853a5711f2861c152dc83fc98c3963
4,2,10,73,2,4,0,1791,da853a5711f2861c152dc83fc98c3963
4,3,10,28,1,2,0,985,da853a5711f2861c152dc83fc98c3963
4,4,46,37,1,1,1,1322,da853a5711f2861c152dc83fc98c3963
4,5,28,64,2,2,1,1814,da853a5711f2861c152dc83fc98c3963
4,6,28,46,1,2,0,1110,da853a5711f2861c152dc83fc98c3963
4,7,19,46,1,1,1,932,da853a5711f2861c152dc83fc98c3963
4,8,82,10,3,3,1,1124,da853a5711f2861c152dc83fc98c3963
4,9,37,19,1,3,0,934,da853a5711f2861c152dc83fc98c3963
4,10,19,64,2,3,0,1320,da853a5711f2861c152dc83fc98c3963
4,11,37,91,2,4,0,1593,da853a5711f2861c152dc83fc98c3963
4,12,46,91,2,2,1,936,da853a5711f2861c152dc83fc98c3963
4,13,10,46,1,3,0,1291,da853a5711f2861c152dc83fc98c3963
4,14,10,19,1,4,0,1285,da853a5711f2861c152dc83fc98c3963
4,15,91,55,4,3,0,1132,da853a5711f2861c152dc83fc98c3963
4,16,37,46,1,2,0,1255,da853a5711f2861c152dc83fc98c3963
4,17,64,91,4,3,0,1591,da853a5711f2861c152dc83fc98c3963
4,18,46,73,2,4,0,1413,da853a5711f2861c152dc83fc98c3963
4,19,73,91,4,4,1,1711,da853a5711f2861c152dc83fc98c3963
4,20,19,91,2,3,0,2566,da853a5711f2861c152dc83fc98c3963
4,21,37,10,1,2,0,1519,da853a5711f2861c152dc83fc98c3963
4,22,91,37,3,4,0,1639,da853a5711f2861c152dc83fc98c3963
4,23,91,82,4,3,0,1178,da853a5711f2861c152dc83fc98c3963
4,24,82,46,3,3,1,1696,da853a5711f2861c152dc83fc98c3963
4,25,55,91,4,2,0,2104,da853a5711f2861c152dc83fc98c3963
4,26,55,19,3,2,0,1542,da853a5711f2861c152dc83fc98c3963
4,27,55,10,3,3,1,1210,da853a5711f2861c152dc83fc98c3963
4,28,28,55,2,1,0,1790,da853a5711f2861c152dc83fc98c3963
4,29,37,64,2,2,1,1291,da853a5711f2861c152dc83fc98c3963
4,30,73,46,3,4,0,1621,da853a5711f2861c152dc83fc98c3963
4,31,91,19,3,4,0,1499,da853a5711f2861c152dc83fc98c3963
4,32,55,46,3,2,0,2499,da853a5711f2861c152dc83fc98c3963
4,33,46,55,2,3,0,1356,da853a5711f2861c152dc83fc98c3963
4,34,64,37,3,3,1,1719,da853a5711f2861c152dc83fc98c3963
4,35,73,64,4,3,0,1613,da853a5711f2861c152dc83fc98c3963
4,36,55,82,4,2,0,2337,da853a5711f2861c152dc83fc98c3963
4,37,73,82,4,4,1,1690,da853a5711f2861c152dc83fc98c3963
4,38,28,37,1,1,1,2456,da853a5711f2861c152dc83fc98c3963
4,39,64,10,3,1,0,2272,da853a5711f2861c152dc83fc98c3963
4,40,19,82,2,1,0,1625,da853a5711f2861c152dc83fc98c3963
4,41,64,82,4,1,0,1753,da853a5711f2861c152dc83fc98c3963
4,42,37,55,2,1,0,1828,da853a5711f2861c152dc83fc98c3963
4,43,19,10,1,2,0,2285,da853a5711f2861c152dc83fc98c3963
4,44,10,82,2,1,0,1588,da853a5711f2861c152dc83fc98c3963
4,45,82,37,3,3,1,1378,da853a5711f2861c152dc83fc98c3963
4,46,82,55,4,3,0,1648,da853a5711f2861c152dc83fc98c3963
4,47,46,28,1,2,0,1290,da853a5711f2861c152dc83fc98c3963
4,48,91,28,3,3,1,2227,da853a5711f2861c152dc83fc98c3963
4,49,19,28,1,4,0,1706,da853a5711f2861c152dc83fc98c3963
4,50,28,73,2,2,1,2542,da853a5711f2861c152dc83fc98c3963
4,51,28,91,2,2,1,1765,da853a5711f2861c152dc83fc98c3963
4,52,19,73,2,2,1,1622,da853a5711f2861c152dc83fc98c3963
4,53,55,28,3,1,0,1745,da853a5711f2861c152dc83fc98c3963
4,54,91,73,4,4,1,1223,da853a5711f2861c152dc83fc98c3963
4,55,10,37,1,3,0,2073,da853a5711f2861c152dc83fc98c3963
4,56,64,46,3,3,1,1436,da853a5711f2861c152dc83fc98c3963
4,57,73,28,3,3,1,1862,da853a5711f2861c152dc83fc98c3963
4,58,55,73,4,4,1,3660,da853a5711f2861c152dc83fc98c3963
4,59,10,91,2,1,0,1965,da853a5711f2861c152dc83fc98c3963
4,60,73,55,4,3,0,986,da853a5711f2861c152dc83fc98c3963
4,61,55,37,3,3,1,1274,da853a5711f2861c152dc83fc98c3963
4,62,91,64,4,3,0,1853,da853a5711f2861c152dc83fc98c3963
4,63,73,73,4,3,0,1002,da853a5711f2861c152dc83fc98c3963
4,64,10,10,1,2,0,2286,da853a5711f2861c152dc83fc98c3963
4,65,28,19,1,2,0,937,da853a5711f2861c152dc83fc98c3963
4,66,73,10,3,3,1,1021,da853a5711f2861c152dc83fc98c3963
4,67,82,91,4,3,0,1540,da853a5711f2861c152dc83fc98c3963
4,68,10,55,2,1,0,1859,da853a5711f2861c152dc83fc98c3963
4,69,55,55,4,1,0,1471,da853a5711f2861c152dc83fc98c3963
4,70,46,64,2,2,1,1833,da853a5711f2861c152dc83fc98c3963
4,71,28,28,1,3,0,2150,da853a5711f2861c152dc83fc98c3963
4,72,55,64,4,2,0,1456,da853a5711f2861c152dc83fc98c3963
4,73,64,55,4,4,1,1308,da853a5711f2861c152dc83fc98c3963
4,74,91,46,3,3,1,1167,da853a5711f2861c152dc83fc98c3963
4,75,37,82,2,1,0,1213,da853a5711f2861c152dc83fc98c3963
4,76,19,37,1,1,1,1632,da853a5711f2861c152dc83fc98c3963
4,77,37,28,1,1,1,1394,da853a5711f2861c152dc83fc98c3963
4,78,82,28,3,3,1,1732,da853a5711f2861c152dc83fc98c3963
4,79,82,82,4,4,1,1819,da853a5711f2861c152dc83fc98c3963
4,80,46,19,1,2,0,2066,da853a5711f2861c152dc83fc98c3963
4,81,64,19,3,2,0,2265,da853a5711f2861c152dc83fc98c3963
4,82,28,10,1,3,0,1214,da853a5711f2861c152dc83fc98c3963
4,83,46,82,2,2,1,1606,da853a5711f2861c152dc83fc98c3963
4,84,82,73,4,3,0,1104,da853a5711f2861c152dc83fc98c3963
4,85,64,28,3,3,1,1690,da853a5711f2861c152dc83fc98c3963
4,86,91,10,3,3,1,1255,da853a5711f2861c152dc83fc98c3963
4,87,91,91,4,4,1,972,da853a5711f2861c152dc83fc98c3963
4,88,28,82,2,1,0,1637,da853a5711f2861c152dc83fc98c3963
4,89,82,64,4,4,1,1563,da853a5711f2861c152dc83fc98c3963
4,90,46,46,1,2,0,2072,da853a5711f2861c152dc83fc98c3963
4,91,19,55,2,1,0,1849,da853a5711f2861c152dc83fc98c3963
4,92,64,64,4,4,1,1341,da853a5711f2861c152dc83fc98c3963
4,93,37,37,1,2,0,1354,da853a5711f2861c152dc83fc98c3963
4,94,82,19,3,3,1,1394,da853a5711f2861c152dc83fc98c3963
4,95,37,73,2,1,0,2219,da853a5711f2861c152dc83fc98c3963
4,96,10,64,2,1,0,1538,da853a5711f2861c152dc83fc98c3963
4,97,46,10,1,1,1,1186,da853a5711f2861c152dc83fc98c3963
4,98,73,37,3,3,1,1510,da853a5711f2861c152dc83fc98c3963
4,99,73,19,3,3,1,1363,da853a5711f2861c152dc83fc98c3963
4,100,82,73,4,4,1,1570,da853a5711f2861c152dc83fc98c3963
4,101,10,64,2,2,1,2113,da853a5711f2861c152dc83fc98c3963
4,102,37,37,1,1,1,1500,da853a5711f2861c152dc83fc98c3963
4,103,64,37,3,3,1,1283,da853a5711f2861c152dc83fc98c3963
4,104,37,64,2,2,1,2223,da853a5711f2861c152dc83fc98c3963
4,105,91,64,4,4,1,1422,da853a5711f2861c152dc83fc98c3963
4,106,19,37,1,1,1,1683,da853a5711f2861c152dc83fc98c3963
4,107,91,55,4,3,0,1425,da853a5711f2861c152dc83fc98c3963
4,108,19,55,2,1,0,1541,da853a5711f2861c152dc83fc98c3963
4,109,64,46,3,3,1,1826,da853a5711f2861c152dc83fc98c3963
4,110,28,10,1,1,1,1768,da853a5711f2861c152dc83fc98c3963
4,111,37,46,1,2,0,1483,da853a5711f2861c152dc83fc98c3963
4,112,37,55,2,2,1,1339,da853a5711f2861c152dc83fc98c3963
4,113,37,10,1,1,1,1577,da853a5711f2861c152dc83fc98c3963
4,114,73,46,3,3,1,1505,da853a5711f2861c152dc83fc98c3963
4,115,55,46,3,1,0,2136,da853a5711f2861c152dc83fc98c3963
4,116,91,91,4,4,1,1248,da853a5711f2861c152dc83fc98c3963
4,117,19,64,2,2,1,1454,da853a5711f2861c152dc83fc98c3963
4,118,37,91,2,2,1,1901,da853a5711f2861c152dc83fc98c3963
4,119,10,28,1,1,1,1549,da853a5711f2861c152dc83fc98c3963
4,120,46,46,1,2,0,1250,da853a5711f2861c152dc83fc98c3963
4,121,73,55,4,4,1,1411,da853a5711f2861c152dc83fc98c3963
4,122,64,82,4,4,1,1203,da853a5711f2861c152dc83fc98c3963
4,123,46,55,2,1,0,2231,da853a5711f2861c152dc83fc98c3963
