n_categories,session,trial_id,stim_id_l,x1_true_l,x2_true_l,stim_id_r,x1_true_r,x2_true_r,d_euclidean,response,rt,Sex,participant_id,comparison_pool,pool_left,pool_right
4,1,0,68,64,73,72,73,19,54.74,4,8107,Female,3c3c9a3ce6de665299db0c86b111fcca,side,4,3
4,1,1,51,55,10,65,64,46,37.11,4,8447,Female,3c3c9a3ce6de665299db0c86b111fcca,same,3,3
4,1,2,87,82,64,63,64,28,40.25,3,3018,Female,3c3c9a3ce6de665299db0c86b111fcca,side,4,3
4,1,3,1,10,10,26,28,55,48.47,5,4384,Female,3c3c9a3ce6de665299db0c86b111fcca,side,1,2
4,1,4,51,55,10,85,82,46,45,5,2481,Female,3c3c9a3ce6de665299db0c86b111fcca,same,3,3
4,1,5,51,55,10,74,73,37,32.45,4,2792,Female,3c3c9a3ce6de665299db0c86b111fcca,same,3,3
4,1,6,75,73,46,33,37,28,40.25,5,5074,Female,3c3c9a3ce6de665299db0c86b111fcca,side,3,1
4,1,7,58,55,73,66,64,55,20.12,6,3014,Female,3c3c9a3ce6de665299db0c86b111fcca,same,4,4
4,1,8,100,91,91,40,37,91,54,7,3057,Female,3c3c9a3ce6de665299db0c86b111fcca,side,4,2
4,1,9,11,19,10,87,82,64,82.98,8,6404,Female,3c3c9a3ce6de665299db0c86b111fcca,cross,1,4
4,1,10,74,73,37,63,64,28,12.73,2,4176,Female,3c3c9a3ce6de665299db0c86b111fcca,same,3,3
4,1,11,10,10,91,63,64,28,82.98,8,3048,Female,3c3c9a3ce6de665299db0c86b111fcca,cross,2,3
4,1,12,76,73,55,61,64,10,45.89,7,12256,Female,3c3c9a3ce6de665299db0c86b111fcca,side,4,3
4,1,13,33,37,28,92,91,19,54.74,6,6061,Female,3c3c9a3ce6de665299db0c86b111fcca,side,1,3
4,1,14,10,10,91,77,73,64,68.54,7,8724,Female,3c3c9a3ce6de665299db0c86b111fcca,side,2,4
4,1,15,27,28,64,2,10,19,48.47,7,6959,Female,3c3c9a3ce6de665299db0c86b111fcca,side,2,1
4,1,16,52,55,19,72,73,19,18,3,4383,Female,3c3c9a3ce6de665299db0c86b111fcca,same,3,3
4,1,17,49,46,82,66,64,55,32.45,4,5249,Female,3c3c9a3ce6de665299db0c86b111fcca,side,2,4
4,1,18,39,37,82,28,28,73,12.73,4,6572,Female,3c3c9a3ce6de665299db0c86b111fcca,same,2,2
4,1,19,98,91,73,71,73,10,65.52,6,6384,Female,3c3c9a3ce6de665299db0c86b111fcca,side,4,3
4,1,20,20,19,91,18,19,73,18,2,9135,Female,3c3c9a3ce6de665299db0c86b111fcca,same,2,2
4,1,21,38,37,73,65,64,46,38.18,5,8466,Female,3c3c9a3ce6de665299db0c86b111fcca,cross,2,3
4,1,22,70,64,91,100,91,91,27,3,6843,Female,3c3c9a3ce6de665299db0c86b111fcca,same,4,4
4,1,23,19,19,82,36,37,55,32.45,3,4749,Female,3c3c9a3ce6de665299db0c86b111fcca,same,2,2
4,1,24,15,19,46,41,46,10,45,6,7408,Female,3c3c9a3ce6de665299db0c86b111fcca,same,1,1
4,1,25,62,64,19,52,55,19,9,2,7009,Female,3c3c9a3ce6de665299db0c86b111fcca,same,3,3
4,1,26,51,55,10,69,64,82,72.56,6,5489,Female,3c3c9a3ce6de665299db0c86b111fcca,side,3,4
4,1,27,93,91,28,14,19,37,72.56,7,6523,Female,3c3c9a3ce6de665299db0c86b111fcca,side,3,1
4,1,28,27,28,64,64,64,37,45,6,6237,Female,3c3c9a3ce6de665299db0c86b111fcca,cross,2,3
4,1,29,72,73,19,16,19,55,64.9,7,12764,Female,3c3c9a3ce6de665299db0c86b111fcca,cross,3,2
4,1,30,28,28,73,81,82,10,82.98,8,10198,Female,3c3c9a3ce6de665299db0c86b111fcca,cross,2,3
4,1,31,91,91,10,4,10,37,85.38,7,3810,Female,3c3c9a3ce6de665299db0c86b111fcca,side,3,1
4,1,32,64,64,37,97,91,64,38.18,6,7426,Female,3c3c9a3ce6de665299db0c86b111fcca,side,3,4
4,1,33,57,55,64,24,28,37,38.18,4,5570,Female,3c3c9a3ce6de665299db0c86b111fcca,cross,4,1
4,1,34,20,19,91,15,19,46,45,2,5550,Female,3c3c9a3ce6de665299db0c86b111fcca,side,2,1
4,1,35,59,55,82,50,46,91,12.73,4,5340,Female,3c3c9a3ce6de665299db0c86b111fcca,side,4,2
4,1,36,26,28,55,29,28,82,27,4,3033,Female,3c3c9a3ce6de665299db0c86b111fcca,same,2,2
4,1,37,52,55,19,32,37,19,18,2,3295,Female,3c3c9a3ce6de665299db0c86b111fcca,side,3,1
4,1,38,47,46,64,89,82,82,40.25,6,45719,Female,3c3c9a3ce6de665299db0c86b111fcca,side,2,4
4,1,39,24,28,37,2,10,19,25.46,6,5480,Female,3c3c9a3ce6de665299db0c86b111fcca,same,1,1
4,1,40,64,64,37,24,28,37,36,6,3847,Female,3c3c9a3ce6de665299db0c86b111fcca,side,3,1
4,1,41,11,19,10,19,19,82,72,4,8549,Female,3c3c9a3ce6de665299db0c86b111fcca,side,1,2
4,1,42,40,37,91,34,37,37,54,6,9631,Female,3c3c9a3ce6de665299db0c86b111fcca,side,2,1
4,1,43,53,55,28,92,91,19,37.11,4,7757,Female,3c3c9a3ce6de665299db0c86b111fcca,same,3,3
4,1,44,33,37,28,41,46,10,20.12,7,6394,Female,3c3c9a3ce6de665299db0c86b111fcca,same,1,1
4,1,45,63,64,28,81,82,10,25.46,6,3238,Female,3c3c9a3ce6de665299db0c86b111fcca,same,3,3
4,1,46,62,64,19,15,19,46,52.48,3,3895,Female,3c3c9a3ce6de665299db0c86b111fcca,side,3,1
4,1,47,72,73,19,8,10,73,82.98,1,2430,Female,3c3c9a3ce6de665299db0c86b111fcca,cross,3,2
4,1,48,77,73,64,41,46,10,60.37,4,7225,Female,3c3c9a3ce6de665299db0c86b111fcca,cross,4,1
4,1,49,60,55,91,75,73,46,48.47,7,4159,Female,3c3c9a3ce6de665299db0c86b111fcca,side,4,3
4,1,50,95,91,46,96,91,55,9,8,4474,Female,3c3c9a3ce6de665299db0c86b111fcca,side,3,4
4,1,51,12,19,19,71,73,10,54.74,6,5840,Female,3c3c9a3ce6de665299db0c86b111fcca,side,1,3
4,1,52,29,28,82,1,10,10,74.22,3,4197,Female,3c3c9a3ce6de665299db0c86b111fcca,side,2,1
4,1,53,100,91,91,16,19,55,80.5,2,2736,Female,3c3c9a3ce6de665299db0c86b111fcca,side,4,2
4,1,54,14,19,37,96,91,55,74.22,3,3830,Female,3c3c9a3ce6de665299db0c86b111fcca,cross,1,4
4,1,55,45,46,46,95,91,46,45,4,9244,Female,3c3c9a3ce6de665299db0c86b111fcca,side,1,3
4,1,56,69,64,82,4,10,37,70.29,4,7890,Female,3c3c9a3ce6de665299db0c86b111fcca,cross,4,1
4,1,57,92,91,19,94,91,37,18,7,2427,Female,3c3c9a3ce6de665299db0c86b111fcca,same,3,3
4,1,58,70,64,91,96,91,55,45,7,4137,Female,3c3c9a3ce6de665299db0c86b111fcca,same,4,4
4,1,59,28,28,73,34,37,37,37.11,7,5169,Female,3c3c9a3ce6de665299db0c86b111fcca,side,2,1
4,1,60,88,82,73,59,55,82,28.46,6,2556,Female,3c3c9a3ce6de665299db0c86b111fcca,same,4,4
4,1,61,80,73,91,34,37,37,64.9,4,8252,Female,3c3c9a3ce6de665299db0c86b111fcca,cross,4,1
4,1,62,16,19,55,38,37,73,25.46,5,11149,Female,3c3c9a3ce6de665299db0c86b111fcca,same,2,2
4,1,63,83,82,28,26,28,55,60.37,3,5609,Female,3c3c9a3ce6de665299db0c86b111fcca,cross,3,2
4,1,64,86,82,55,34,37,37,48.47,2,4024,Female,3c3c9a3ce6de665299db0c86b111fcca,cross,4,1
4,1,65,41,46,10,100,91,91,92.66,1,4660,Female,3c3c9a3ce6de665299db0c86b111fcca,cross,1,4
4,1,66,12,19,19,43,46,28,28.46,7,7014,Female,3c3c9a3ce6de665299db0c86b111fcca,same,1,1
4,1,67,71,73,10,7,10,64,82.98,8,7424,Female,3c3c9a3ce6de665299db0c86b111fcca,cross,3,2
4,1,68,66,64,55,100,91,91,45,7,8917,Female,3c3c9a3ce6de665299db0c86b111fcca,same,4,4
4,1,69,60,55,91,87,82,64,38.18,7,2283,Female,3c3c9a3ce6de665299db0c86b111fcca,same,4,4
4,1,70,26,28,55,10,10,91,40.25,6,3310,Female,3c3c9a3ce6de665299db0c86b111fcca,same,2,2
4,1,71,100,91,91,26,28,55,72.56,3,3752,Female,3c3c9a3ce6de665299db0c86b111fcca,side,4,2
4,1,72,67,64,64,70,64,91,27,7,3286,Female,3c3c9a3ce6de665299db0c86b111fcca,same,4,4
4,1,73,2,10,19,32,37,19,27,7,4881,Female,3c3c9a3ce6de665299db0c86b111fcca,same,1,1
4,1,74,62,64,19,94,91,37,32.45,6,2481,Female,3c3c9a3ce6de665299db0c86b111fcca,same,3,3
4,1,75,91,91,10,79,73,82,74.22,6,3404,Female,3c3c9a3ce6de665299db0c86b111fcca,side,3,4
4,1,76,92,91,19,7,10,64,92.66,1,3029,Female,3c3c9a3ce6de665299db0c86b111fcca,cross,3,2
4,1,77,21,28,10,68,64,73,72.56,4,6016,Female,3c3c9a3ce6de665299db0c86b111fcca,cross,1,4
4,1,78,12,19,19,44,46,37,32.45,5,5781,Female,3c3c9a3ce6de665299db0c86b111fcca,same,1,1
4,1,79,54,55,37,20,19,91,64.9,5,15075,Female,3c3c9a3ce6de665299db0c86b111fcca,cross,3,2
4,1,80,28,28,73,21,28,10,63,6,5215,Female,3c3c9a3ce6de665299db0c86b111fcca,side,2,1
4,1,81,97,91,64,77,73,64,18,7,4868,Female,3c3c9a3ce6de665299db0c86b111fcca,same,4,4
4,1,82,76,73,55,90,82,91,37.11,6,2893,Female,3c3c9a3ce6de665299db0c86b111fcca,same,4,4
4,1,83,37,37,64,34,37,37,27,6,1869,Female,3c3c9a3ce6de665299db0c86b111fcca,side,2,1
4,1,84,17,19,64,10,10,91,28.46,7,3269,Female,3c3c9a3ce6de665299db0c86b111fcca,same,2,2
4,1,85,60,55,91,56,55,55,36,7,5689,Female,3c3c9a3ce6de665299db0c86b111fcca,same,4,4
4,1,86,4,10,37,21,28,10,32.45,6,1931,Female,3c3c9a3ce6de665299db0c86b111fcca,same,1,1
4,1,87,4,10,37,32,37,19,32.45,7,5464,Female,3c3c9a3ce6de665299db0c86b111fcca,same,1,1
4,1,88,100,91,91,28,28,73,65.52,4,3632,Female,3c3c9a3ce6de665299db0c86b111fcca,side,4,2
4,1,89,43,46,28,49,46,82,54,5,4456,Female,3c3c9a3ce6de665299db0c86b111fcca,side,1,2
4,1,90,48,46,73,9,10,82,37.11,4,6241,Female,3c3c9a3ce6de665299db0c86b111fcca,same,2,2
4,1,91,67,64,64,16,19,55,45.89,5,3122,Female,3c3c9a3ce6de665299db0c86b111fcca,side,4,2
4,1,92,3,10,28,32,37,19,28.46,7,4601,Female,3c3c9a3ce6de665299db0c86b111fcca,same,1,1
4,1,93,100,91,91,74,73,37,56.92,6,6033,Female,3c3c9a3ce6de665299db0c86b111fcca,side,4,3
4,1,94,77,73,64,32,37,19,57.63,5,9624,Female,3c3c9a3ce6de665299db0c86b111fcca,cross,4,1
4,1,95,4,10,37,31,37,10,38.18,7,2634,Female,3c3c9a3ce6de665299db0c86b111fcca,same,1,1
4,1,96,50,46,91,26,28,55,40.25,6,9395,Female,3c3c9a3ce6de665299db0c86b111fcca,same,2,2
4,1,97,39,37,82,6,10,55,38.18,6,9453,Female,3c3c9a3ce6de665299db0c86b111fcca,same,2,2
4,1,98,87,82,64,48,46,73,37.11,4,8871,Female,3c3c9a3ce6de665299db0c86b111fcca,side,4,2
4,1,99,34,37,37,85,82,46,45.89,3,2951,Female,3c3c9a3ce6de665299db0c86b111fcca,side,1,3
4,1,0,57,55,64,5,10,46,48.47,4,7524,Female,3c3c9a3ce6de665299db0c86b111fcca,cross,4,1
4,1,1,16,19,55,26,28,55,9,7,7758,Female,3c3c9a3ce6de665299db0c86b111fcca,same,2,2
4,1,2,19,19,82,13,19,28,54,6,2105,Female,3c3c9a3ce6de665299db0c86b111fcca,side,2,1
4,1,3,32,37,19,52,55,19,18,7,3568,Female,3c3c9a3ce6de665299db0c86b111fcca,side,1,3
4,1,4,39,37,82,60,55,91,20.12,7,5370,Female,3c3c9a3ce6de665299db0c86b111fcca,side,2,4
4,1,5,21,28,10,12,19,19,12.73,8,2146,Female,3c3c9a3ce6de665299db0c86b111fcca,same,1,1
4,1,6,11,19,10,46,46,55,52.48,6,2340,Female,3c3c9a3ce6de665299db0c86b111fcca,side,1,2
4,1,7,6,10,55,38,37,73,32.45,5,1767,Female,3c3c9a3ce6de665299db0c86b111fcca,same,2,2
4,1,8,73,73,28,47,46,64,45,4,3354,Female,3c3c9a3ce6de665299db0c86b111fcca,cross,3,2
4,1,9,72,73,19,73,73,28,9,7,4819,Female,3c3c9a3ce6de665299db0c86b111fcca,same,3,3
4,1,10,53,55,28,98,91,73,57.63,4,4370,Female,3c3c9a3ce6de665299db0c86b111fcca,side,3,4
4,1,11,67,64,64,10,10,91,60.37,2,3002,Female,3c3c9a3ce6de665299db0c86b111fcca,side,4,2
4,1,12,78,73,73,6,10,55,65.52,4,6363,Female,3c3c9a3ce6de665299db0c86b111fcca,side,4,2
4,1,13,87,82,64,51,55,10,60.37,4,7108,Female,3c3c9a3ce6de665299db0c86b111fcca,side,4,3
4,1,14,5,10,46,92,91,19,85.38,1,3529,Female,3c3c9a3ce6de665299db0c86b111fcca,side,1,3
4,1,15,99,91,82,93,91,28,54,6,3259,Female,3c3c9a3ce6de665299db0c86b111fcca,side,4,3
4,1,16,97,91,64,66,64,55,28.46,6,3730,Female,3c3c9a3ce6de665299db0c86b111fcca,same,4,4
4,1,17,22,28,19,30,28,91,72,6,3711,Female,3c3c9a3ce6de665299db0c86b111fcca,side,1,2
4,1,18,44,46,37,61,64,10,32.45,5,2711,Female,3c3c9a3ce6de665299db0c86b111fcca,side,1,3
4,1,19,74,73,37,55,55,46,20.12,5,3587,Female,3c3c9a3ce6de665299db0c86b111fcca,same,3,3
4,1,20,41,46,10,45,46,46,36,6,5060,Female,3c3c9a3ce6de665299db0c86b111fcca,same,1,1
4,1,21,51,55,10,93,91,28,40.25,4,4186,Female,3c3c9a3ce6de665299db0c86b111fcca,same,3,3
4,1,22,59,55,82,96,91,55,45,3,4173,Female,3c3c9a3ce6de665299db0c86b111fcca,same,4,4
4,1,23,81,82,10,36,37,55,63.64,1,3158,Female,3c3c9a3ce6de665299db0c86b111fcca,cross,3,2
4,1,24,91,91,10,79,73,82,74.22,3,7391,Female,3c3c9a3ce6de665299db0c86b111fcca,side,3,4
4,1,25,2,10,19,62,64,19,54,4,7324,Female,3c3c9a3ce6de665299db0c86b111fcca,side,1,3
4,1,26,81,82,10,62,64,19,20.12,6,3805,Female,3c3c9a3ce6de665299db0c86b111fcca,same,3,3
4,1,27,19,19,82,8,10,73,12.73,7,2391,Female,3c3c9a3ce6de665299db0c86b111fcca,same,2,2
4,1,28,16,19,55,82,82,19,72.56,2,5364,Female,3c3c9a3ce6de665299db0c86b111fcca,cross,2,3
4,1,29,90,82,91,96,91,55,37.11,7,2045,Female,3c3c9a3ce6de665299db0c86b111fcca,same,4,4
4,1,30,86,82,55,35,37,46,45.89,6,4423,Female,3c3c9a3ce6de665299db0c86b111fcca,cross,4,1
4,1,31,1,10,10,9,10,82,72,4,3784,Female,3c3c9a3ce6de665299db0c86b111fcca,side,1,2
4,1,32,79,73,82,25,28,46,57.63,2,5841,Female,3c3c9a3ce6de665299db0c86b111fcca,cross,4,1
4,1,33,23,28,28,47,46,64,40.25,3,3088,Female,3c3c9a3ce6de665299db0c86b111fcca,side,1,2
4,1,34,81,82,10,50,46,91,88.64,3,7228,Female,3c3c9a3ce6de665299db0c86b111fcca,cross,3,2
4,1,35,1,10,10,24,28,37,32.45,7,3515,Female,3c3c9a3ce6de665299db0c86b111fcca,same,1,1
4,1,36,7,10,64,75,73,46,65.52,4,4418,Female,3c3c9a3ce6de665299db0c86b111fcca,cross,2,3
4,1,37,39,37,82,61,64,10,76.9,2,2511,Female,3c3c9a3ce6de665299db0c86b111fcca,cross,2,3
4,1,38,21,28,10,91,91,10,63,4,4771,Female,3c3c9a3ce6de665299db0c86b111fcca,side,1,3
4,1,39,93,91,28,88,82,73,45.89,4,5702,Female,3c3c9a3ce6de665299db0c86b111fcca,side,3,4
4,1,40,76,73,55,11,19,10,70.29,3,4813,Female,3c3c9a3ce6de665299db0c86b111fcca,cross,4,1
4,1,41,13,19,28,94,91,37,72.56,3,5050,Female,3c3c9a3ce6de665299db0c86b111fcca,side,1,3
4,1,42,86,82,55,82,82,19,36,7,3234,Female,3c3c9a3ce6de665299db0c86b111fcca,side,4,3
4,1,43,24,28,37,65,64,46,37.11,6,2867,Female,3c3c9a3ce6de665299db0c86b111fcca,side,1,3
4,1,44,87,82,64,17,19,64,63,2,2915,Female,3c3c9a3ce6de665299db0c86b111fcca,side,4,2
4,1,45,11,19,10,5,10,46,37.11,6,2818,Female,3c3c9a3ce6de665299db0c86b111fcca,same,1,1
4,1,46,21,28,10,3,10,28,25.46,6,3218,Female,3c3c9a3ce6de665299db0c86b111fcca,same,1,1
4,1,47,64,64,37,91,91,10,38.18,3,5519,Female,3c3c9a3ce6de665299db0c86b111fcca,same,3,3
4,1,48,97,91,64,88,82,73,12.73,7,4058,Female,3c3c9a3ce6de665299db0c86b111fcca,same,4,4
4,1,49,100,91,91,20,19,91,72,4,3056,Female,3c3c9a3ce6de665299db0c86b111fcca,side,4,2
4,1,50,71,73,10,9,10,82,95.67,1,3628,Female,3c3c9a3ce6de665299db0c86b111fcca,cross,3,2
4,1,51,90,82,91,78,73,73,20.12,7,1325,Female,3c3c9a3ce6de665299db0c86b111fcca,same,4,4
4,1,52,48,46,73,65,64,46,32.45,6,1452,Female,3c3c9a3ce6de665299db0c86b111fcca,cross,2,3
4,1,53,87,82,64,69,64,82,25.46,6,2280,Female,3c3c9a3ce6de665299db0c86b111fcca,same,4,4
4,1,54,14,19,37,1,10,10,28.46,4,2554,Female,3c3c9a3ce6de665299db0c86b111fcca,same,1,1
4,1,55,14,19,37,89,82,82,77.42,2,7289,Female,3c3c9a3ce6de665299db0c86b111fcca,cross,1,4
4,1,56,6,10,55,84,82,37,74.22,1,2962,Female,3c3c9a3ce6de665299db0c86b111fcca,cross,2,3
4,1,57,57,55,64,80,73,91,32.45,7,2272,Female,3c3c9a3ce6de665299db0c86b111fcca,same,4,4
4,1,58,4,10,37,44,46,37,36,5,2614,Female,3c3c9a3ce6de665299db0c86b111fcca,same,1,1
4,1,59,9,10,82,26,28,55,32.45,5,4716,Female,3c3c9a3ce6de665299db0c86b111fcca,same,2,2
4,1,60,26,28,55,69,64,82,45,4,4350,Female,3c3c9a3ce6de665299db0c86b111fcca,side,2,4
4,1,61,1,10,10,100,91,91,114.55,1,2400,Female,3c3c9a3ce6de665299db0c86b111fcca,cross,1,4
4,1,62,65,64,46,98,91,73,38.18,6,2661,Female,3c3c9a3ce6de665299db0c86b111fcca,side,3,4
4,1,63,97,91,64,10,10,91,85.38,3,3149,Female,3c3c9a3ce6de665299db0c86b111fcca,side,4,2
4,1,64,96,91,55,14,19,37,74.22,3,4810,Female,3c3c9a3ce6de665299db0c86b111fcca,cross,4,1
4,1,65,16,19,55,39,37,82,32.45,4,5223,Female,3c3c9a3ce6de665299db0c86b111fcca,same,2,2
4,1,66,35,37,46,62,64,19,38.18,6,4803,Female,3c3c9a3ce6de665299db0c86b111fcca,side,1,3
4,1,67,38,37,73,37,37,64,9,7,2938,Female,3c3c9a3ce6de665299db0c86b111fcca,same,2,2
4,1,68,82,82,19,53,55,28,28.46,8,4027,Female,3c3c9a3ce6de665299db0c86b111fcca,same,3,3
4,1,69,50,46,91,26,28,55,40.25,6,4548,Female,3c3c9a3ce6de665299db0c86b111fcca,same,2,2
4,1,70,27,28,64,6,10,55,20.12,6,2141,Female,3c3c9a3ce6de665299db0c86b111fcca,same,2,2
4,1,71,92,91,19,55,55,46,45,5,2172,Female,3c3c9a3ce6de665299db0c86b111fcca,same,3,3
4,1,72,31,37,10,94,91,37,60.37,4,2812,Female,3c3c9a3ce6de665299db0c86b111fcca,side,1,3
4,1,73,44,46,37,9,10,82,57.63,3,2276,Female,3c3c9a3ce6de665299db0c86b111fcca,side,1,2
4,1,74,18,19,73,67,64,64,45.89,3,2142,Female,3c3c9a3ce6de665299db0c86b111fcca,side,2,4
4,1,75,93,91,28,54,55,37,37.11,4,2072,Female,3c3c9a3ce6de665299db0c86b111fcca,same,3,3
4,1,76,92,91,19,97,91,64,45,6,2809,Female,3c3c9a3ce6de665299db0c86b111fcca,side,3,4
4,1,77,17,19,64,75,73,46,56.92,3,3043,Female,3c3c9a3ce6de665299db0c86b111fcca,cross,2,3
4,1,78,66,64,55,29,28,82,45,7,2894,Female,3c3c9a3ce6de665299db0c86b111fcca,side,4,2
4,1,79,21,28,10,45,46,46,40.25,7,3976,Female,3c3c9a3ce6de665299db0c86b111fcca,same,1,1
4,1,80,37,37,64,8,10,73,28.46,7,3268,Female,3c3c9a3ce6de665299db0c86b111fcca,same,2,2
4,1,81,88,82,73,21,28,10,82.98,1,3449,Female,3c3c9a3ce6de665299db0c86b111fcca,cross,4,1
4,1,82,68,64,73,36,37,55,32.45,6,5650,Female,3c3c9a3ce6de665299db0c86b111fcca,side,4,2
4,1,83,97,91,64,44,46,37,52.48,2,3972,Female,3c3c9a3ce6de665299db0c86b111fcca,cross,4,1
4,1,84,86,82,55,33,37,28,52.48,2,3229,Female,3c3c9a3ce6de665299db0c86b111fcca,cross,4,1
4,1,85,26,28,55,42,46,19,40.25,6,3198,Female,3c3c9a3ce6de665299db0c86b111fcca,side,2,1
4,1,86,48,46,73,9,10,82,37.11,5,4188,Female,3c3c9a3ce6de665299db0c86b111fcca,same,2,2
4,1,87,91,91,10,90,82,91,81.5,4,2119,Female,3c3c9a3ce6de665299db0c86b111fcca,side,3,4
4,1,88,33,37,28,12,19,19,20.12,8,2610,Female,3c3c9a3ce6de665299db0c86b111fcca,same,1,1
4,1,89,17,19,64,14,19,37,27,7,1388,Female,3c3c9a3ce6de665299db0c86b111fcca,side,2,1
4,1,90,81,82,10,54,55,37,38.18,4,2740,Female,3c3c9a3ce6de665299db0c86b111fcca,same,3,3
4,1,91,80,73,91,76,73,55,36,5,3365,Female,3c3c9a3ce6de665299db0c86b111fcca,same,4,4
4,1,92,96,91,55,56,55,55,36,5,3827,Female,3c3c9a3ce6de665299db0c86b111fcca,same,4,4
4,1,93,73,73,28,94,91,37,20.12,7,3486,Female,3c3c9a3ce6de665299db0c86b111fcca,same,3,3
4,1,94,23,28,28,37,37,64,37.11,4,4009,Female,3c3c9a3ce6de665299db0c86b111fcca,side,1,2
4,1,95,37,37,64,4,10,37,38.18,3,3443,Female,3c3c9a3ce6de665299db0c86b111fcca,side,2,1
4,1,96,90,82,91,80,73,91,9,7,2554,Female,3c3c9a3ce6de665299db0c86b111fcca,same,4,4
4,1,97,21,28,10,33,37,28,20.12,7,4220,Female,3c3c9a3ce6de665299db0c86b111fcca,same,1,1
4,1,98,67,64,64,74,73,37,28.46,7,2132,Female,3c3c9a3ce6de665299db0c86b111fcca,side,4,3
4,1,99,52,55,19,2,10,19,45,6,3075,Female,3c3c9a3ce6de665299db0c86b111fcca,side,3,1
4,2,0,62,64,19,35,37,46,38.18,4,8783,Female,3c3c9a3ce6de665299db0c86b111fcca,side,3,1
4,2,1,24,28,37,1,10,10,32.45,5,2406,Female,3c3c9a3ce6de665299db0c86b111fcca,same,1,1
4,2,2,94,91,37,31,37,10,60.37,1,2758,Female,3c3c9a3ce6de665299db0c86b111fcca,side,3,1
4,2,3,48,46,73,9,10,82,37.11,6,3682,Female,3c3c9a3ce6de665299db0c86b111fcca,same,2,2
4,2,4,92,91,19,5,10,46,85.38,2,3725,Female,3c3c9a3ce6de665299db0c86b111fcca,side,3,1
4,2,5,52,55,19,32,37,19,18,7,3510,Female,3c3c9a3ce6de665299db0c86b111fcca,side,3,1
4,2,6,86,82,55,35,37,46,45.89,6,3129,Female,3c3c9a3ce6de665299db0c86b111fcca,cross,4,1
4,2,7,72,73,19,73,73,28,9,8,1968,Female,3c3c9a3ce6de665299db0c86b111fcca,same,3,3
4,2,8,79,73,82,25,28,46,57.63,6,2429,Female,3c3c9a3ce6de665299db0c86b111fcca,cross,4,1
4,2,9,50,46,91,26,28,55,40.25,6,2706,Female,3c3c9a3ce6de665299db0c86b111fcca,same,2,2
4,2,10,14,19,37,1,10,10,28.46,7,1797,Female,3c3c9a3ce6de665299db0c86b111fcca,same,1,1
4,2,11,12,19,19,33,37,28,20.12,7,1785,Female,3c3c9a3ce6de665299db0c86b111fcca,same,1,1
4,2,12,17,19,64,14,19,37,27,6,1425,Female,3c3c9a3ce6de665299db0c86b111fcca,side,2,1
4,2,13,88,82,73,97,91,64,12.73,8,3512,Female,3c3c9a3ce6de665299db0c86b111fcca,same,4,4
4,2,14,78,73,73,90,82,91,20.12,7,1444,Female,3c3c9a3ce6de665299db0c86b111fcca,same,4,4
4,2,15,12,19,19,21,28,10,12.73,8,1804,Female,3c3c9a3ce6de665299db0c86b111fcca,same,1,1
4,2,16,79,73,82,91,91,10,74.22,6,1669,Female,3c3c9a3ce6de665299db0c86b111fcca,side,4,3
4,2,17,57,55,64,80,73,91,32.45,6,2773,Female,3c3c9a3ce6de665299db0c86b111fcca,same,4,4
4,2,18,9,10,82,1,10,10,72,6,1914,Female,3c3c9a3ce6de665299db0c86b111fcca,side,2,1
4,2,19,9,10,82,26,28,55,32.45,5,2626,Female,3c3c9a3ce6de665299db0c86b111fcca,same,2,2
4,2,20,92,91,19,97,91,64,45,5,2072,Female,3c3c9a3ce6de665299db0c86b111fcca,side,3,4
4,2,21,69,64,82,26,28,55,45,4,2415,Female,3c3c9a3ce6de665299db0c86b111fcca,side,4,2
4,2,22,37,37,64,4,10,37,38.18,4,1786,Female,3c3c9a3ce6de665299db0c86b111fcca,side,2,1
4,2,23,98,91,73,53,55,28,57.63,3,1772,Female,3c3c9a3ce6de665299db0c86b111fcca,side,4,3
4,2,24,14,19,37,89,82,82,77.42,1,2631,Female,3c3c9a3ce6de665299db0c86b111fcca,cross,1,4
4,2,25,47,46,64,23,28,28,40.25,5,3762,Female,3c3c9a3ce6de665299db0c86b111fcca,side,2,1
4,2,26,90,82,91,91,91,10,81.5,6,2279,Female,3c3c9a3ce6de665299db0c86b111fcca,side,4,3
4,2,27,51,55,10,87,82,64,60.37,5,3138,Female,3c3c9a3ce6de665299db0c86b111fcca,side,3,4
4,2,28,81,82,10,54,55,37,38.18,4,2945,Female,3c3c9a3ce6de665299db0c86b111fcca,same,3,3
4,2,29,29,28,82,66,64,55,45,4,2441,Female,3c3c9a3ce6de665299db0c86b111fcca,side,2,4
4,2,30,100,91,91,1,10,10,114.55,1,1941,Female,3c3c9a3ce6de665299db0c86b111fcca,cross,4,1
4,2,31,54,55,37,93,91,28,37.11,5,5637,Female,3c3c9a3ce6de665299db0c86b111fcca,same,3,3
4,2,32,44,46,37,4,10,37,36,5,3333,Female,3c3c9a3ce6de665299db0c86b111fcca,same,1,1
4,2,33,13,19,28,94,91,37,72.56,4,2498,Female,3c3c9a3ce6de665299db0c86b111fcca,side,1,3
4,2,34,38,37,73,6,10,55,32.45,6,2418,Female,3c3c9a3ce6de665299db0c86b111fcca,same,2,2
4,2,35,65,64,46,98,91,73,38.18,3,3436,Female,3c3c9a3ce6de665299db0c86b111fcca,side,3,4
4,2,36,13,19,28,19,19,82,54,4,2932,Female,3c3c9a3ce6de665299db0c86b111fcca,side,1,2
4,2,37,97,91,64,10,10,91,85.38,2,2815,Female,3c3c9a3ce6de665299db0c86b111fcca,side,4,2
4,2,38,68,64,73,36,37,55,32.45,6,2618,Female,3c3c9a3ce6de665299db0c86b111fcca,side,4,2
4,2,39,91,91,10,21,28,10,63,5,6372,Female,3c3c9a3ce6de665299db0c86b111fcca,side,3,1
4,2,40,2,10,19,52,55,19,45,6,2378,Female,3c3c9a3ce6de665299db0c86b111fcca,side,1,3
4,2,41,11,19,10,76,73,55,70.29,4,1892,Female,3c3c9a3ce6de665299db0c86b111fcca,cross,1,4
4,2,42,88,82,73,21,28,10,82.98,1,4402,Female,3c3c9a3ce6de665299db0c86b111fcca,cross,4,1
4,2,43,73,73,28,94,91,37,20.12,7,3029,Female,3c3c9a3ce6de665299db0c86b111fcca,same,3,3
4,2,44,27,28,64,6,10,55,20.12,6,2089,Female,3c3c9a3ce6de665299db0c86b111fcca,same,2,2
4,2,45,96,91,55,14,19,37,74.22,2,2042,Female,3c3c9a3ce6de665299db0c86b111fcca,cross,4,1
4,2,46,82,82,19,16,19,55,72.56,1,2561,Female,3c3c9a3ce6de665299db0c86b111fcca,cross,3,2
4,2,47,16,19,55,26,28,55,9,8,1593,Female,3c3c9a3ce6de665299db0c86b111fcca,same,2,2
4,2,48,18,19,73,67,64,64,45.89,6,3568,Female,3c3c9a3ce6de665299db0c86b111fcca,side,2,4
4,2,49,71,73,10,9,10,82,95.67,1,2926,Female,3c3c9a3ce6de665299db0c86b111fcca,cross,3,2
4,2,50,9,10,82,44,46,37,57.63,4,3264,Female,3c3c9a3ce6de665299db0c86b111fcca,side,2,1
4,2,51,93,91,28,88,82,73,45.89,6,2864,Female,3c3c9a3ce6de665299db0c86b111fcca,side,3,4
4,2,52,45,46,46,21,28,10,40.25,7,3340,Female,3c3c9a3ce6de665299db0c86b111fcca,same,1,1
4,2,53,86,82,55,82,82,19,36,7,2042,Female,3c3c9a3ce6de665299db0c86b111fcca,side,4,3
4,2,54,67,64,64,10,10,91,60.37,2,2670,Female,3c3c9a3ce6de665299db0c86b111fcca,side,4,2
4,2,55,6,10,55,78,73,73,65.52,3,2994,Female,3c3c9a3ce6de665299db0c86b111fcca,side,2,4
4,2,56,37,37,64,23,28,28,37.11,7,3408,Female,3c3c9a3ce6de665299db0c86b111fcca,side,2,1
4,2,57,62,64,19,2,10,19,54,5,2553,Female,3c3c9a3ce6de665299db0c86b111fcca,side,3,1
4,2,58,36,37,55,81,82,10,63.64,4,1837,Female,3c3c9a3ce6de665299db0c86b111fcca,cross,2,3
4,2,59,69,64,82,87,82,64,25.46,7,2857,Female,3c3c9a3ce6de665299db0c86b111fcca,same,4,4
4,2,60,51,55,10,93,91,28,40.25,5,2971,Female,3c3c9a3ce6de665299db0c86b111fcca,same,3,3
4,2,61,24,28,37,65,64,46,37.11,4,1860,Female,3c3c9a3ce6de665299db0c86b111fcca,side,1,3
4,2,62,11,19,10,5,10,46,37.11,3,3044,Female,3c3c9a3ce6de665299db0c86b111fcca,same,1,1
4,2,63,62,64,19,81,82,10,20.12,8,2316,Female,3c3c9a3ce6de665299db0c86b111fcca,same,3,3
4,2,64,90,82,91,80,73,91,9,8,2334,Female,3c3c9a3ce6de665299db0c86b111fcca,same,4,4
4,2,65,59,55,82,96,91,55,45,4,2534,Female,3c3c9a3ce6de665299db0c86b111fcca,same,4,4
4,2,66,30,28,91,22,28,19,72,5,2053,Female,3c3c9a3ce6de665299db0c86b111fcca,side,2,1
4,2,67,55,55,46,92,91,19,45,5,3702,Female,3c3c9a3ce6de665299db0c86b111fcca,same,3,3
4,2,68,96,91,55,90,82,91,37.11,5,2997,Female,3c3c9a3ce6de665299db0c86b111fcca,same,4,4
4,2,69,33,37,28,86,82,55,52.48,3,2827,Female,3c3c9a3ce6de665299db0c86b111fcca,cross,1,4
4,2,70,84,82,37,6,10,55,74.22,2,1872,Female,3c3c9a3ce6de665299db0c86b111fcca,cross,3,2
4,2,71,96,91,55,56,55,55,36,3,2108,Female,3c3c9a3ce6de665299db0c86b111fcca,same,4,4
4,2,72,73,73,28,47,46,64,45,4,2453,Female,3c3c9a3ce6de665299db0c86b111fcca,cross,3,2
4,2,73,76,73,55,80,73,91,36,6,2617,Female,3c3c9a3ce6de665299db0c86b111fcca,same,4,4
4,2,74,37,37,64,8,10,73,28.46,6,1299,Female,3c3c9a3ce6de665299db0c86b111fcca,same,2,2
4,2,75,41,46,10,45,46,46,36,7,3085,Female,3c3c9a3ce6de665299db0c86b111fcca,same,1,1
4,2,76,75,73,46,17,19,64,56.92,3,4168,Female,3c3c9a3ce6de665299db0c86b111fcca,cross,3,2
4,2,77,46,46,55,11,19,10,52.48,4,2393,Female,3c3c9a3ce6de665299db0c86b111fcca,side,2,1
4,2,78,19,19,82,8,10,73,12.73,8,1399,Female,3c3c9a3ce6de665299db0c86b111fcca,same,2,2
4,2,79,42,46,19,26,28,55,40.25,7,2613,Female,3c3c9a3ce6de665299db0c86b111fcca,side,1,2
4,2,80,82,82,19,53,55,28,28.46,8,1682,Female,3c3c9a3ce6de665299db0c86b111fcca,same,3,3
4,2,81,57,55,64,5,10,46,48.47,6,3295,Female,3c3c9a3ce6de665299db0c86b111fcca,cross,4,1
4,2,82,61,64,10,39,37,82,76.9,4,2873,Female,3c3c9a3ce6de665299db0c86b111fcca,cross,3,2
4,2,83,44,46,37,61,64,10,32.45,6,2728,Female,3c3c9a3ce6de665299db0c86b111fcca,side,1,3
4,2,84,16,19,55,39,37,82,32.45,6,2019,Female,3c3c9a3ce6de665299db0c86b111fcca,same,2,2
4,2,85,67,64,64,74,73,37,28.46,7,1473,Female,3c3c9a3ce6de665299db0c86b111fcca,side,4,3
4,2,86,100,91,91,20,19,91,72,4,1909,Female,3c3c9a3ce6de665299db0c86b111fcca,side,4,2
4,2,87,17,19,64,87,82,64,63,4,3770,Female,3c3c9a3ce6de665299db0c86b111fcca,side,2,4
4,2,88,97,91,64,66,64,55,28.46,7,2580,Female,3c3c9a3ce6de665299db0c86b111fcca,same,4,4
4,2,89,60,55,91,39,37,82,20.12,8,1279,Female,3c3c9a3ce6de665299db0c86b111fcca,side,4,2
4,2,90,97,91,64,44,46,37,52.48,6,1768,Female,3c3c9a3ce6de665299db0c86b111fcca,cross,4,1
4,2,91,99,91,82,93,91,28,54,6,3105,Female,3c3c9a3ce6de665299db0c86b111fcca,side,4,3
4,2,92,81,82,10,50,46,91,88.64,3,3749,Female,3c3c9a3ce6de665299db0c86b111fcca,cross,3,2
4,2,93,38,37,73,37,37,64,9,8,1473,Female,3c3c9a3ce6de665299db0c86b111fcca,same,2,2
4,2,94,7,10,64,75,73,46,65.52,2,3935,Female,3c3c9a3ce6de665299db0c86b111fcca,cross,2,3
4,2,95,48,46,73,65,64,46,32.45,2,1438,Female,3c3c9a3ce6de665299db0c86b111fcca,cross,2,3
4,2,96,21,28,10,3,10,28,25.46,7,3180,Female,3c3c9a3ce6de665299db0c86b111fcca,same,1,1
4,2,97,74,73,37,55,55,46,20.12,8,1859,Female,3c3c9a3ce6de665299db0c86b111fcca,same,3,3
4,2,98,33,37,28,21,28,10,20.12,7,1521,Female,3c3c9a3ce6de665299db0c86b111fcca,same,1,1
4,2,99,91,91,10,64,64,37,38.18,3,2241,Female,3c3c9a3ce6de665299db0c86b111fcca,same,3,3
4,1,0,75,73,46,99,91,82,40.25,5,4516,Female,10de0173fd2ef7007b283baf2b08fdbc,side,3,4
4,1,1,58,55,73,17,19,64,37.11,4,5651,Female,10de0173fd2ef7007b283baf2b08fdbc,side,4,2
4,1,2,1,10,10,24,28,37,32.45,3,4866,Female,10de0173fd2ef7007b283baf2b08fdbc,same,1,1
4,1,3,34,37,37,89,82,82,63.64,3,3867,Female,10de0173fd2ef7007b283baf2b08fdbc,cross,1,4
4,1,4,40,37,91,26,28,55,37.11,4,4710,Female,10de0173fd2ef7007b283baf2b08fdbc,same,2,2
4,1,5,49,46,82,8,10,73,37.11,3,4392,Female,10de0173fd2ef7007b283baf2b08fdbc,same,2,2
4,1,6,71,73,10,79,73,82,72,4,3330,Female,10de0173fd2ef7007b283baf2b08fdbc,side,3,4
4,1,7,43,46,28,47,46,64,36,5,5976,Female,10de0173fd2ef7007b283baf2b08fdbc,side,1,2
4,1,8,74,73,37,73,73,28,9,7,5113,Female,10de0173fd2ef7007b283baf2b08fdbc,same,3,3
4,1,9,12,19,19,76,73,55,64.9,2,6992,Female,10de0173fd2ef7007b283baf2b08fdbc,cross,1,4
4,1,10,8,10,73,51,55,10,77.42,3,3159,Female,10de0173fd2ef7007b283baf2b08fdbc,cross,2,3
4,1,11,19,19,82,96,91,55,76.9,2,4932,Female,10de0173fd2ef7007b283baf2b08fdbc,side,2,4
4,1,12,100,91,91,87,82,64,28.46,6,6270,Female,10de0173fd2ef7007b283baf2b08fdbc,same,4,4
4,1,13,35,37,46,18,19,73,32.45,2,4543,Female,10de0173fd2ef7007b283baf2b08fdbc,side,1,2
4,1,14,19,19,82,46,46,55,38.18,4,9797,Female,10de0173fd2ef7007b283baf2b08fdbc,same,2,2
4,1,15,24,28,37,6,10,55,25.46,6,4517,Female,10de0173fd2ef7007b283baf2b08fdbc,side,1,2
4,1,16,92,91,19,64,64,37,32.45,5,5737,Female,10de0173fd2ef7007b283baf2b08fdbc,same,3,3
4,1,17,24,28,37,44,46,37,18,7,6648,Female,10de0173fd2ef7007b283baf2b08fdbc,same,1,1
4,1,18,31,37,10,74,73,37,45,6,3144,Female,10de0173fd2ef7007b283baf2b08fdbc,side,1,3
4,1,19,89,82,82,32,37,19,77.42,4,3603,Female,10de0173fd2ef7007b283baf2b08fdbc,cross,4,1
4,1,20,21,28,10,43,46,28,25.46,6,8923,Female,10de0173fd2ef7007b283baf2b08fdbc,same,1,1
4,1,21,48,46,73,16,19,55,32.45,5,4057,Female,10de0173fd2ef7007b283baf2b08fdbc,same,2,2
4,1,22,39,37,82,46,46,55,28.46,5,2335,Female,10de0173fd2ef7007b283baf2b08fdbc,same,2,2
4,1,23,75,73,46,3,10,28,65.52,4,3599,Female,10de0173fd2ef7007b283baf2b08fdbc,side,3,1
4,1,24,51,55,10,1,10,10,45,4,9719,Female,10de0173fd2ef7007b283baf2b08fdbc,side,3,1
4,1,25,63,64,28,57,55,64,37.11,7,4185,Female,10de0173fd2ef7007b283baf2b08fdbc,side,3,4
4,1,26,86,82,55,80,73,91,37.11,6,3330,Female,10de0173fd2ef7007b283baf2b08fdbc,same,4,4
4,1,27,35,37,46,1,10,10,45,4,3473,Female,10de0173fd2ef7007b283baf2b08fdbc,same,1,1
4,1,28,79,73,82,96,91,55,32.45,7,2020,Female,10de0173fd2ef7007b283baf2b08fdbc,same,4,4
4,1,29,19,19,82,12,19,19,63,7,2592,Female,10de0173fd2ef7007b283baf2b08fdbc,side,2,1
4,1,30,31,37,10,88,82,73,77.42,2,7674,Female,10de0173fd2ef7007b283baf2b08fdbc,cross,1,4
4,1,31,7,10,64,42,46,19,57.63,3,2936,Female,10de0173fd2ef7007b283baf2b08fdbc,side,2,1
4,1,32,44,46,37,78,73,73,45,4,4777,Female,10de0173fd2ef7007b283baf2b08fdbc,cross,1,4
4,1,33,98,91,73,57,55,64,37.11,5,3979,Female,10de0173fd2ef7007b283baf2b08fdbc,same,4,4
4,1,34,31,37,10,57,55,64,56.92,5,4001,Female,10de0173fd2ef7007b283baf2b08fdbc,cross,1,4
4,1,35,41,46,10,98,91,73,77.42,4,3773,Female,10de0173fd2ef7007b283baf2b08fdbc,cross,1,4
4,1,36,27,28,64,1,10,10,56.92,4,3726,Female,10de0173fd2ef7007b283baf2b08fdbc,side,2,1
4,1,37,5,10,46,71,73,10,72.56,2,3660,Female,10de0173fd2ef7007b283baf2b08fdbc,side,1,3
4,1,38,63,64,28,93,91,28,27,7,5677,Female,10de0173fd2ef7007b283baf2b08fdbc,same,3,3
4,1,39,90,82,91,57,55,64,38.18,6,3658,Female,10de0173fd2ef7007b283baf2b08fdbc,same,4,4
4,1,40,76,73,55,37,37,64,37.11,4,4196,Female,10de0173fd2ef7007b283baf2b08fdbc,side,4,2
4,1,41,68,64,73,43,46,28,48.47,5,3204,Female,10de0173fd2ef7007b283baf2b08fdbc,cross,4,1
4,1,42,33,37,28,25,28,46,20.12,7,5586,Female,10de0173fd2ef7007b283baf2b08fdbc,same,1,1
4,1,43,85,82,46,62,64,19,32.45,7,3917,Female,10de0173fd2ef7007b283baf2b08fdbc,same,3,3
4,1,44,85,82,46,48,46,73,45,5,5086,Female,10de0173fd2ef7007b283baf2b08fdbc,cross,3,2
4,1,45,66,64,55,20,19,91,57.63,2,3599,Female,10de0173fd2ef7007b283baf2b08fdbc,side,4,2
4,1,46,34,37,37,53,55,28,20.12,7,4591,Female,10de0173fd2ef7007b283baf2b08fdbc,side,1,3
4,1,47,30,28,91,21,28,10,81,6,3115,Female,10de0173fd2ef7007b283baf2b08fdbc,side,2,1
4,1,48,5,10,46,95,91,46,81,3,4477,Female,10de0173fd2ef7007b283baf2b08fdbc,side,1,3
4,1,49,82,82,19,54,55,37,32.45,4,5019,Female,10de0173fd2ef7007b283baf2b08fdbc,same,3,3
4,1,50,98,91,73,63,64,28,52.48,5,5518,Female,10de0173fd2ef7007b283baf2b08fdbc,side,4,3
4,1,51,3,10,28,11,19,10,20.12,7,5720,Female,10de0173fd2ef7007b283baf2b08fdbc,same,1,1
4,1,52,71,73,10,64,64,37,28.46,7,3804,Female,10de0173fd2ef7007b283baf2b08fdbc,same,3,3
4,1,53,94,91,37,49,46,82,63.64,4,4266,Female,10de0173fd2ef7007b283baf2b08fdbc,cross,3,2
4,1,54,27,28,64,49,46,82,25.46,5,4809,Female,10de0173fd2ef7007b283baf2b08fdbc,same,2,2
4,1,55,11,19,10,65,64,46,57.63,4,2401,Female,10de0173fd2ef7007b283baf2b08fdbc,side,1,3
4,1,56,34,37,37,49,46,82,45.89,6,6334,Female,10de0173fd2ef7007b283baf2b08fdbc,side,1,2
4,1,57,98,91,73,60,55,91,40.25,6,7094,Female,10de0173fd2ef7007b283baf2b08fdbc,same,4,4
4,1,58,88,82,73,70,64,91,25.46,7,2611,Female,10de0173fd2ef7007b283baf2b08fdbc,same,4,4
4,1,59,95,91,46,60,55,91,57.63,5,4308,Female,10de0173fd2ef7007b283baf2b08fdbc,side,3,4
4,1,60,61,64,10,13,19,28,48.47,2,3290,Female,10de0173fd2ef7007b283baf2b08fdbc,side,3,1
4,1,61,55,55,46,57,55,64,18,7,3134,Female,10de0173fd2ef7007b283baf2b08fdbc,side,3,4
4,1,62,100,91,91,98,91,73,18,7,3956,Female,10de0173fd2ef7007b283baf2b08fdbc,same,4,4
4,1,63,51,55,10,50,46,91,81.5,6,2554,Female,10de0173fd2ef7007b283baf2b08fdbc,cross,3,2
4,1,64,62,64,19,63,64,28,9,7,2543,Female,10de0173fd2ef7007b283baf2b08fdbc,same,3,3
4,1,65,85,82,46,52,55,19,38.18,6,3534,Female,10de0173fd2ef7007b283baf2b08fdbc,same,3,3
4,1,66,91,91,10,89,82,82,72.56,6,4106,Female,10de0173fd2ef7007b283baf2b08fdbc,side,3,4
4,1,67,36,37,55,49,46,82,28.46,6,39653,Female,10de0173fd2ef7007b283baf2b08fdbc,same,2,2
4,1,68,79,73,82,69,64,82,9,8,4133,Female,10de0173fd2ef7007b283baf2b08fdbc,same,4,4
4,1,69,70,64,91,46,46,55,40.25,6,2314,Female,10de0173fd2ef7007b283baf2b08fdbc,side,4,2
4,1,70,11,19,10,5,10,46,37.11,6,6768,Female,10de0173fd2ef7007b283baf2b08fdbc,same,1,1
4,1,71,40,37,91,62,64,19,76.9,4,2534,Female,10de0173fd2ef7007b283baf2b08fdbc,cross,2,3
4,1,72,49,46,82,48,46,73,9,7,4406,Female,10de0173fd2ef7007b283baf2b08fdbc,same,2,2
4,1,73,10,10,91,36,37,55,45,4,3087,Female,10de0173fd2ef7007b283baf2b08fdbc,same,2,2
4,1,74,41,46,10,4,10,37,45,2,7508,Female,10de0173fd2ef7007b283baf2b08fdbc,same,1,1
4,1,75,99,91,82,13,19,28,90,3,2611,Female,10de0173fd2ef7007b283baf2b08fdbc,cross,4,1
4,1,76,95,91,46,52,55,19,45,4,3204,Female,10de0173fd2ef7007b283baf2b08fdbc,same,3,3
4,1,77,29,28,82,100,91,91,63.64,3,3792,Female,10de0173fd2ef7007b283baf2b08fdbc,side,2,4
4,1,78,41,46,10,97,91,64,70.29,2,3011,Female,10de0173fd2ef7007b283baf2b08fdbc,cross,1,4
4,1,79,5,10,46,24,28,37,20.12,6,4352,Female,10de0173fd2ef7007b283baf2b08fdbc,same,1,1
4,1,80,82,82,19,22,28,19,54,4,4282,Female,10de0173fd2ef7007b283baf2b08fdbc,side,3,1
4,1,81,73,73,28,83,82,28,9,8,3826,Female,10de0173fd2ef7007b283baf2b08fdbc,same,3,3
4,1,82,72,73,19,66,64,55,37.11,6,2707,Female,10de0173fd2ef7007b283baf2b08fdbc,side,3,4
4,1,83,100,91,91,88,82,73,20.12,7,2600,Female,10de0173fd2ef7007b283baf2b08fdbc,same,4,4
4,1,84,45,46,46,19,19,82,45,3,2913,Female,10de0173fd2ef7007b283baf2b08fdbc,side,1,2
4,1,85,31,37,10,5,10,46,45,4,7811,Female,10de0173fd2ef7007b283baf2b08fdbc,same,1,1
4,1,86,30,28,91,60,55,91,27,7,4339,Female,10de0173fd2ef7007b283baf2b08fdbc,side,2,4
4,1,87,19,19,82,51,55,10,80.5,4,4499,Female,10de0173fd2ef7007b283baf2b08fdbc,cross,2,3
4,1,88,79,73,82,17,19,64,56.92,5,4780,Female,10de0173fd2ef7007b283baf2b08fdbc,side,4,2
4,1,89,64,64,37,48,46,73,40.25,5,3827,Female,10de0173fd2ef7007b283baf2b08fdbc,cross,3,2
4,1,90,16,19,55,97,91,64,72.56,5,4920,Female,10de0173fd2ef7007b283baf2b08fdbc,side,2,4
4,1,91,47,46,64,17,19,64,27,6,5881,Female,10de0173fd2ef7007b283baf2b08fdbc,same,2,2
4,1,92,85,82,46,70,64,91,48.47,6,3143,Female,10de0173fd2ef7007b283baf2b08fdbc,side,3,4
4,1,93,18,19,73,70,64,91,48.47,4,3891,Female,10de0173fd2ef7007b283baf2b08fdbc,side,2,4
4,1,94,82,82,19,10,10,91,101.82,4,1785,Female,10de0173fd2ef7007b283baf2b08fdbc,cross,3,2
4,1,95,11,19,10,30,28,91,81.5,6,3559,Female,10de0173fd2ef7007b283baf2b08fdbc,side,1,2
4,1,96,6,10,55,75,73,46,63.64,4,4393,Female,10de0173fd2ef7007b283baf2b08fdbc,cross,2,3
4,1,97,14,19,37,55,55,46,37.11,4,3763,Female,10de0173fd2ef7007b283baf2b08fdbc,side,1,3
4,1,98,52,55,19,27,28,64,52.48,3,5770,Female,10de0173fd2ef7007b283baf2b08fdbc,cross,3,2
4,1,99,70,64,91,54,55,37,54.74,6,2178,Female,10de0173fd2ef7007b283baf2b08fdbc,side,4,3
4,1,0,70,64,91,12,19,19,84.91,3,13851,Female,10de0173fd2ef7007b283baf2b08fdbc,cross,4,1
4,1,1,10,10,91,42,46,19,80.5,2,3648,Female,10de0173fd2ef7007b283baf2b08fdbc,side,2,1
4,1,2,30,28,91,47,46,64,32.45,4,2424,Female,10de0173fd2ef7007b283baf2b08fdbc,same,2,2
4,1,3,23,28,28,8,10,73,48.47,5,4033,Female,10de0173fd2ef7007b283baf2b08fdbc,side,1,2
4,1,4,21,28,10,5,10,46,40.25,4,3088,Female,10de0173fd2ef7007b283baf2b08fdbc,same,1,1
4,1,5,31,37,10,4,10,37,38.18,3,11344,Female,10de0173fd2ef7007b283baf2b08fdbc,same,1,1
4,1,6,95,91,46,9,10,82,88.64,3,2158,Female,10de0173fd2ef7007b283baf2b08fdbc,cross,3,2
4,1,7,82,82,19,38,37,73,70.29,3,2240,Female,10de0173fd2ef7007b283baf2b08fdbc,cross,3,2
4,1,8,4,10,37,61,64,10,60.37,4,2797,Female,10de0173fd2ef7007b283baf2b08fdbc,side,1,3
4,1,9,63,64,28,45,46,46,25.46,6,2255,Female,10de0173fd2ef7007b283baf2b08fdbc,side,3,1
4,1,10,5,10,46,4,10,37,9,7,2042,Female,10de0173fd2ef7007b283baf2b08fdbc,same,1,1
4,1,11,47,46,64,71,73,10,60.37,4,3518,Female,10de0173fd2ef7007b283baf2b08fdbc,cross,2,3
4,1,12,52,55,19,92,91,19,36,5,3223,Female,10de0173fd2ef7007b283baf2b08fdbc,same,3,3
4,1,13,97,91,64,20,19,91,76.9,3,3776,Female,10de0173fd2ef7007b283baf2b08fdbc,side,4,2
4,1,14,94,91,37,16,19,55,74.22,3,2857,Female,10de0173fd2ef7007b283baf2b08fdbc,cross,3,2
4,1,15,87,82,64,50,46,91,45,3,2664,Female,10de0173fd2ef7007b283baf2b08fdbc,side,4,2
4,1,16,82,82,19,19,19,82,89.1,2,3454,Female,10de0173fd2ef7007b283baf2b08fdbc,cross,3,2
4,1,17,99,91,82,76,73,55,32.45,5,3586,Female,10de0173fd2ef7007b283baf2b08fdbc,same,4,4
4,1,18,32,37,19,66,64,55,45,3,3571,Female,10de0173fd2ef7007b283baf2b08fdbc,cross,1,4
4,1,19,45,46,46,90,82,91,57.63,4,2447,Female,10de0173fd2ef7007b283baf2b08fdbc,cross,1,4
4,1,20,18,19,73,49,46,82,28.46,5,3659,Female,10de0173fd2ef7007b283baf2b08fdbc,same,2,2
4,1,21,100,91,91,6,10,55,88.64,3,5305,Female,10de0173fd2ef7007b283baf2b08fdbc,side,4,2
4,1,22,52,55,19,93,91,28,37.11,5,5288,Female,10de0173fd2ef7007b283baf2b08fdbc,same,3,3
4,1,23,55,55,46,85,82,46,27,6,5175,Female,10de0173fd2ef7007b283baf2b08fdbc,same,3,3
4,1,24,44,46,37,4,10,37,36,4,2415,Female,10de0173fd2ef7007b283baf2b08fdbc,same,1,1
4,1,25,42,46,19,95,91,46,52.48,5,2189,Female,10de0173fd2ef7007b283baf2b08fdbc,side,1,3
4,1,26,79,73,82,87,82,64,20.12,7,2863,Female,10de0173fd2ef7007b283baf2b08fdbc,same,4,4
4,1,27,87,82,64,5,10,46,74.22,3,2007,Female,10de0173fd2ef7007b283baf2b08fdbc,cross,4,1
4,1,28,92,91,19,90,82,91,72.56,4,3040,Female,10de0173fd2ef7007b283baf2b08fdbc,side,3,4
4,1,29,45,46,46,16,19,55,28.46,4,3549,Female,10de0173fd2ef7007b283baf2b08fdbc,side,1,2
4,1,30,62,64,19,94,91,37,32.45,4,3230,Female,10de0173fd2ef7007b283baf2b08fdbc,same,3,3
4,1,31,32,37,19,21,28,10,12.73,6,2392,Female,10de0173fd2ef7007b283baf2b08fdbc,same,1,1
4,1,32,5,10,46,95,91,46,81,4,9384,Female,10de0173fd2ef7007b283baf2b08fdbc,side,1,3
4,1,33,17,19,64,75,73,46,56.92,2,2435,Female,10de0173fd2ef7007b283baf2b08fdbc,cross,2,3
4,1,34,96,91,55,97,91,64,9,7,2049,Female,10de0173fd2ef7007b283baf2b08fdbc,same,4,4
4,1,35,88,82,73,51,55,10,68.54,4,2401,Female,10de0173fd2ef7007b283baf2b08fdbc,side,4,3
4,1,36,47,46,64,85,82,46,40.25,3,1703,Female,10de0173fd2ef7007b283baf2b08fdbc,cross,2,3
4,1,37,77,73,64,7,10,64,63,4,2576,Female,10de0173fd2ef7007b283baf2b08fdbc,side,4,2
4,1,38,70,64,91,96,91,55,45,6,3091,Female,10de0173fd2ef7007b283baf2b08fdbc,same,4,4
4,1,39,35,37,46,1,10,10,45,4,2407,Female,10de0173fd2ef7007b283baf2b08fdbc,same,1,1
4,1,40,54,55,37,21,28,10,38.18,4,3240,Female,10de0173fd2ef7007b283baf2b08fdbc,side,3,1
4,1,41,53,55,28,79,73,82,56.92,5,2993,Female,10de0173fd2ef7007b283baf2b08fdbc,side,3,4
4,1,42,71,73,10,20,19,91,97.35,4,2401,Female,10de0173fd2ef7007b283baf2b08fdbc,cross,3,2
4,1,43,37,37,64,20,19,91,32.45,6,3691,Female,10de0173fd2ef7007b283baf2b08fdbc,same,2,2
4,1,44,60,55,91,56,55,55,36,6,2218,Female,10de0173fd2ef7007b283baf2b08fdbc,same,4,4
4,1,45,61,64,10,98,91,73,68.54,4,2841,Female,10de0173fd2ef7007b283baf2b08fdbc,side,3,4
4,1,46,63,64,28,53,55,28,9,8,4477,Female,10de0173fd2ef7007b283baf2b08fdbc,same,3,3
4,1,47,81,82,10,4,10,37,76.9,2,4928,Female,10de0173fd2ef7007b283baf2b08fdbc,side,3,1
4,1,48,20,19,91,17,19,64,27,7,2158,Female,10de0173fd2ef7007b283baf2b08fdbc,same,2,2
4,1,49,38,37,73,48,46,73,9,8,3942,Female,10de0173fd2ef7007b283baf2b08fdbc,same,2,2
4,1,50,28,28,73,44,46,37,40.25,6,3990,Female,10de0173fd2ef7007b283baf2b08fdbc,side,2,1
4,1,51,55,55,46,83,82,28,32.45,6,2274,Female,10de0173fd2ef7007b283baf2b08fdbc,same,3,3
4,1,52,17,19,64,50,46,91,38.18,5,2391,Female,10de0173fd2ef7007b283baf2b08fdbc,same,2,2
4,1,53,68,64,73,84,82,37,40.25,5,3778,Female,10de0173fd2ef7007b283baf2b08fdbc,side,4,3
4,1,54,51,55,10,100,91,91,88.64,4,2607,Female,10de0173fd2ef7007b283baf2b08fdbc,side,3,4
4,1,55,88,82,73,79,73,82,12.73,7,2473,Female,10de0173fd2ef7007b283baf2b08fdbc,same,4,4
4,1,56,11,19,10,61,64,10,45,6,3686,Female,10de0173fd2ef7007b283baf2b08fdbc,side,1,3
4,1,57,52,55,19,2,10,19,45,6,2783,Female,10de0173fd2ef7007b283baf2b08fdbc,side,3,1
4,1,58,58,55,73,19,19,82,37.11,5,3895,Female,10de0173fd2ef7007b283baf2b08fdbc,side,4,2
4,1,59,79,73,82,54,55,37,48.47,6,2720,Female,10de0173fd2ef7007b283baf2b08fdbc,side,4,3
4,1,60,45,46,46,13,19,28,32.45,5,4426,Female,10de0173fd2ef7007b283baf2b08fdbc,same,1,1
4,1,61,2,10,19,37,37,64,52.48,3,2527,Female,10de0173fd2ef7007b283baf2b08fdbc,side,1,2
4,1,62,36,37,55,50,46,91,37.11,5,2650,Female,10de0173fd2ef7007b283baf2b08fdbc,same,2,2
4,1,63,62,64,19,13,19,28,45.89,4,5935,Female,10de0173fd2ef7007b283baf2b08fdbc,side,3,1
4,1,64,29,28,82,2,10,19,65.52,3,4303,Female,10de0173fd2ef7007b283baf2b08fdbc,side,2,1
4,1,65,8,10,73,36,37,55,32.45,4,65389,Female,10de0173fd2ef7007b283baf2b08fdbc,same,2,2
4,1,66,53,55,28,48,46,73,45.89,6,1608,Female,10de0173fd2ef7007b283baf2b08fdbc,cross,3,2
4,1,67,22,28,19,17,19,64,45.89,3,1905,Female,10de0173fd2ef7007b283baf2b08fdbc,side,1,2
4,1,68,90,82,91,33,37,28,77.42,2,2258,Female,10de0173fd2ef7007b283baf2b08fdbc,cross,4,1
4,1,69,2,10,19,97,91,64,92.66,2,23467,Female,10de0173fd2ef7007b283baf2b08fdbc,cross,1,4
4,1,70,41,46,10,80,73,91,85.38,5,2431,Female,10de0173fd2ef7007b283baf2b08fdbc,cross,1,4
4,1,71,79,73,82,37,37,64,40.25,5,8850,Female,10de0173fd2ef7007b283baf2b08fdbc,side,4,2
4,1,72,32,37,19,6,10,55,45,3,2778,Female,10de0173fd2ef7007b283baf2b08fdbc,side,1,2
4,1,73,88,82,73,75,73,46,28.46,7,1762,Female,10de0173fd2ef7007b283baf2b08fdbc,side,4,3
4,1,74,13,19,28,32,37,19,20.12,7,1393,Female,10de0173fd2ef7007b283baf2b08fdbc,same,1,1
4,1,75,67,64,64,96,91,55,28.46,7,2848,Female,10de0173fd2ef7007b283baf2b08fdbc,same,4,4
4,1,76,74,73,37,55,55,46,20.12,7,2018,Female,10de0173fd2ef7007b283baf2b08fdbc,same,3,3
4,1,77,81,82,10,51,55,10,27,7,3815,Female,10de0173fd2ef7007b283baf2b08fdbc,same,3,3
4,1,78,43,46,28,87,82,64,50.91,6,1944,Female,10de0173fd2ef7007b283baf2b08fdbc,cross,1,4
4,1,79,58,55,73,39,37,82,20.12,6,1287,Female,10de0173fd2ef7007b283baf2b08fdbc,side,4,2
4,1,80,39,37,82,26,28,55,28.46,7,2519,Female,10de0173fd2ef7007b283baf2b08fdbc,same,2,2
4,1,81,46,46,55,99,91,82,52.48,5,1943,Female,10de0173fd2ef7007b283baf2b08fdbc,side,2,4
4,1,82,16,19,55,26,28,55,9,8,88102,Female,10de0173fd2ef7007b283baf2b08fdbc,same,2,2
4,1,83,75,73,46,52,55,19,32.45,6,5354,Female,10de0173fd2ef7007b283baf2b08fdbc,same,3,3
4,1,84,21,28,10,56,55,55,52.48,5,1905,Female,10de0173fd2ef7007b283baf2b08fdbc,cross,1,4
4,1,85,100,91,91,99,91,82,9,8,2982,Female,10de0173fd2ef7007b283baf2b08fdbc,same,4,4
4,1,86,66,64,55,41,46,10,48.47,4,2657,Female,10de0173fd2ef7007b283baf2b08fdbc,cross,4,1
4,1,87,96,91,55,72,73,19,40.25,7,1446,Female,10de0173fd2ef7007b283baf2b08fdbc,side,4,3
4,1,88,58,55,73,90,82,91,32.45,6,3062,Female,10de0173fd2ef7007b283baf2b08fdbc,same,4,4
4,1,89,74,73,37,73,73,28,9,7,2198,Female,10de0173fd2ef7007b283baf2b08fdbc,same,3,3
4,1,90,24,28,37,5,10,46,20.12,6,3691,Female,10de0173fd2ef7007b283baf2b08fdbc,same,1,1
4,1,91,80,73,91,96,91,55,40.25,6,1965,Female,10de0173fd2ef7007b283baf2b08fdbc,same,4,4
4,1,92,26,28,55,87,82,64,54.74,5,1706,Female,10de0173fd2ef7007b283baf2b08fdbc,side,2,4
4,1,93,24,28,37,30,28,91,54,6,2378,Female,10de0173fd2ef7007b283baf2b08fdbc,side,1,2
4,1,94,41,46,10,9,10,82,80.5,4,2708,Female,10de0173fd2ef7007b283baf2b08fdbc,side,1,2
4,1,95,36,37,55,79,73,82,45,4,1129,Female,10de0173fd2ef7007b283baf2b08fdbc,side,2,4
4,1,96,91,91,10,44,46,37,52.48,3,1612,Female,10de0173fd2ef7007b283baf2b08fdbc,side,3,1
4,1,97,64,64,37,59,55,82,45.89,5,2675,Female,10de0173fd2ef7007b283baf2b08fdbc,side,3,4
4,1,98,3,10,28,4,10,37,9,7,2475,Female,10de0173fd2ef7007b283baf2b08fdbc,same,1,1
4,1,99,38,37,73,74,73,37,50.91,6,2492,Female,10de0173fd2ef7007b283baf2b08fdbc,cross,2,3
1,1,0,91,91,10,97,91,64,54,8,1738,Male,b63cbc20b61914bd378ae347b8a9a768,side,3,4
1,1,1,31,37,10,73,73,28,40.25,6,2683,Male,b63cbc20b61914bd378ae347b8a9a768,side,1,3
1,1,2,15,19,46,22,28,19,28.46,7,2300,Male,b63cbc20b61914bd378ae347b8a9a768,same,1,1
1,1,3,21,28,10,60,55,91,85.38,3,1868,Male,b63cbc20b61914bd378ae347b8a9a768,cross,1,4
1,1,4,35,37,46,3,10,28,32.45,4,5709,Male,b63cbc20b61914bd378ae347b8a9a768,same,1,1
1,1,5,63,64,28,91,91,10,32.45,5,4791,Male,b63cbc20b61914bd378ae347b8a9a768,same,3,3
1,1,6,82,82,19,27,28,64,70.29,1,1741,Male,b63cbc20b61914bd378ae347b8a9a768,cross,3,2
1,1,7,26,28,55,58,55,73,32.45,6,4456,Male,b63cbc20b61914bd378ae347b8a9a768,side,2,4
1,1,8,64,64,37,58,55,73,37.11,7,3843,Male,b63cbc20b61914bd378ae347b8a9a768,side,3,4
1,1,9,33,37,28,86,82,55,52.48,1,1473,Male,b63cbc20b61914bd378ae347b8a9a768,cross,1,4
1,1,10,5,10,46,20,19,91,45.89,5,2857,Male,b63cbc20b61914bd378ae347b8a9a768,side,1,2
1,1,11,25,28,46,94,91,37,63.64,1,1727,Male,b63cbc20b61914bd378ae347b8a9a768,side,1,3
1,1,12,46,46,55,6,10,55,36,1,1951,Male,b63cbc20b61914bd378ae347b8a9a768,same,2,2
1,1,13,87,82,64,99,91,82,20.12,7,7647,Male,b63cbc20b61914bd378ae347b8a9a768,same,4,4
1,1,14,22,28,19,99,91,82,89.1,1,4695,Male,b63cbc20b61914bd378ae347b8a9a768,cross,1,4
1,1,15,9,10,82,50,46,91,37.11,2,2927,Male,b63cbc20b61914bd378ae347b8a9a768,same,2,2
1,1,16,85,82,46,83,82,28,18,8,1503,Male,b63cbc20b61914bd378ae347b8a9a768,same,3,3
1,1,17,53,55,28,94,91,37,37.11,5,4315,Male,b63cbc20b61914bd378ae347b8a9a768,same,3,3
1,1,18,11,19,10,48,46,73,68.54,3,4624,Male,b63cbc20b61914bd378ae347b8a9a768,side,1,2
1,1,19,35,37,46,31,37,10,36,8,1694,Male,b63cbc20b61914bd378ae347b8a9a768,same,1,1
1,1,20,93,91,28,41,46,10,48.47,1,1228,Male,b63cbc20b61914bd378ae347b8a9a768,side,3,1
1,1,21,31,37,10,10,10,91,85.38,3,7857,Male,b63cbc20b61914bd378ae347b8a9a768,side,1,2
1,1,22,86,82,55,56,55,55,27,7,6894,Male,b63cbc20b61914bd378ae347b8a9a768,same,4,4
1,1,23,96,91,55,8,10,73,82.98,1,2553,Male,b63cbc20b61914bd378ae347b8a9a768,side,4,2
1,1,24,93,91,28,85,82,46,20.12,8,1977,Male,b63cbc20b61914bd378ae347b8a9a768,same,3,3
1,1,25,82,82,19,93,91,28,12.73,8,1405,Male,b63cbc20b61914bd378ae347b8a9a768,same,3,3
1,1,26,99,91,82,82,82,19,63.64,8,3416,Male,b63cbc20b61914bd378ae347b8a9a768,side,4,3
1,1,27,43,46,28,77,73,64,45,6,2921,Male,b63cbc20b61914bd378ae347b8a9a768,cross,1,4
1,1,28,31,37,10,43,46,28,20.12,7,4140,Male,b63cbc20b61914bd378ae347b8a9a768,same,1,1
1,1,29,93,91,28,15,19,46,74.22,1,1053,Male,b63cbc20b61914bd378ae347b8a9a768,side,3,1
1,1,30,46,46,55,78,73,73,32.45,3,5643,Male,b63cbc20b61914bd378ae347b8a9a768,side,2,4
1,1,31,54,55,37,95,91,46,37.11,4,3731,Male,b63cbc20b61914bd378ae347b8a9a768,same,3,3
1,1,32,66,64,55,6,10,55,54,1,967,Male,b63cbc20b61914bd378ae347b8a9a768,side,4,2
1,1,33,97,91,64,15,19,46,74.22,1,1089,Male,b63cbc20b61914bd378ae347b8a9a768,cross,4,1
1,1,34,96,91,55,57,55,64,37.11,1,1708,Male,b63cbc20b61914bd378ae347b8a9a768,same,4,4
1,1,35,8,10,73,85,82,46,76.9,1,903,Male,b63cbc20b61914bd378ae347b8a9a768,cross,2,3
1,1,36,55,55,46,8,10,73,52.48,1,3403,Male,b63cbc20b61914bd378ae347b8a9a768,cross,3,2
1,1,37,66,64,55,74,73,37,20.12,8,1553,Male,b63cbc20b61914bd378ae347b8a9a768,side,4,3
1,1,38,35,37,46,30,28,91,45.89,8,1314,Male,b63cbc20b61914bd378ae347b8a9a768,side,1,2
1,1,39,23,28,28,14,19,37,12.73,7,9199,Male,b63cbc20b61914bd378ae347b8a9a768,same,1,1
1,1,40,86,82,55,87,82,64,9,7,6922,Male,b63cbc20b61914bd378ae347b8a9a768,same,4,4
1,1,41,94,91,37,54,55,37,36,3,11029,Male,b63cbc20b61914bd378ae347b8a9a768,same,3,3
1,1,42,73,73,28,46,46,55,38.18,3,6921,Male,b63cbc20b61914bd378ae347b8a9a768,cross,3,2
1,1,43,85,82,46,1,10,10,80.5,1,1859,Male,b63cbc20b61914bd378ae347b8a9a768,side,3,1
1,1,44,16,19,55,68,64,73,48.47,1,5253,Male,b63cbc20b61914bd378ae347b8a9a768,side,2,4
1,1,45,26,28,55,25,28,46,9,7,1984,Male,b63cbc20b61914bd378ae347b8a9a768,side,2,1
1,1,46,60,55,91,88,82,73,32.45,2,4890,Male,b63cbc20b61914bd378ae347b8a9a768,same,4,4
1,1,47,30,28,91,51,55,10,85.38,1,1364,Male,b63cbc20b61914bd378ae347b8a9a768,cross,2,3
1,1,48,38,37,73,14,19,37,40.25,3,18580,Male,b63cbc20b61914bd378ae347b8a9a768,side,2,1
1,1,49,82,82,19,45,46,46,45,3,6692,Male,b63cbc20b61914bd378ae347b8a9a768,side,3,1
1,1,50,82,82,19,41,46,10,37.11,5,2504,Male,b63cbc20b61914bd378ae347b8a9a768,side,3,1
1,1,51,28,28,73,80,73,91,48.47,2,14527,Male,b63cbc20b61914bd378ae347b8a9a768,side,2,4
1,1,52,46,46,55,9,10,82,45,1,1393,Male,b63cbc20b61914bd378ae347b8a9a768,same,2,2
1,1,53,23,28,28,44,46,37,20.12,5,5717,Male,b63cbc20b61914bd378ae347b8a9a768,same,1,1
1,1,54,98,91,73,6,10,55,82.98,1,1523,Male,b63cbc20b61914bd378ae347b8a9a768,side,4,2
1,1,55,89,82,82,82,82,19,63,4,4764,Male,b63cbc20b61914bd378ae347b8a9a768,side,4,3
1,1,56,79,73,82,5,10,46,72.56,1,3045,Male,b63cbc20b61914bd378ae347b8a9a768,cross,4,1
1,1,57,56,55,55,11,19,10,57.63,1,6097,Male,b63cbc20b61914bd378ae347b8a9a768,cross,4,1
1,1,58,24,28,37,54,55,37,27,4,9491,Male,b63cbc20b61914bd378ae347b8a9a768,side,1,3
1,1,59,10,10,91,7,10,64,27,5,3841,Male,b63cbc20b61914bd378ae347b8a9a768,same,2,2
1,1,60,71,73,10,92,91,19,20.12,7,2782,Male,b63cbc20b61914bd378ae347b8a9a768,same,3,3
1,1,61,46,46,55,41,46,10,45,4,6422,Male,b63cbc20b61914bd378ae347b8a9a768,side,2,1
1,1,62,77,73,64,99,91,82,25.46,6,4983,Male,b63cbc20b61914bd378ae347b8a9a768,same,4,4
1,1,63,10,10,91,93,91,28,102.62,1,2886,Male,b63cbc20b61914bd378ae347b8a9a768,cross,2,3
1,1,64,10,10,91,4,10,37,54,3,3111,Male,b63cbc20b61914bd378ae347b8a9a768,side,2,1
1,1,65,62,64,19,100,91,91,76.9,1,25444,Male,b63cbc20b61914bd378ae347b8a9a768,side,3,4
1,1,66,73,73,28,15,19,46,56.92,1,3309,Male,b63cbc20b61914bd378ae347b8a9a768,side,3,1
1,1,67,38,37,73,60,55,91,25.46,5,3007,Male,b63cbc20b61914bd378ae347b8a9a768,side,2,4
1,1,68,4,10,37,45,46,46,37.11,3,12430,Male,b63cbc20b61914bd378ae347b8a9a768,same,1,1
1,1,69,38,37,73,65,64,46,38.18,3,7517,Male,b63cbc20b61914bd378ae347b8a9a768,cross,2,3
1,1,70,93,91,28,97,91,64,36,5,2939,Male,b63cbc20b61914bd378ae347b8a9a768,side,3,4
1,1,71,21,28,10,5,10,46,40.25,4,10495,Male,b63cbc20b61914bd378ae347b8a9a768,same,1,1
1,1,72,98,91,73,3,10,28,92.66,1,1130,Male,b63cbc20b61914bd378ae347b8a9a768,cross,4,1
1,1,73,35,37,46,89,82,82,57.63,1,2491,Male,b63cbc20b61914bd378ae347b8a9a768,cross,1,4
1,1,74,33,37,28,4,10,37,28.46,2,2951,Male,b63cbc20b61914bd378ae347b8a9a768,same,1,1
1,1,75,28,28,73,11,19,10,63.64,2,3103,Male,b63cbc20b61914bd378ae347b8a9a768,side,2,1
1,1,76,76,73,55,80,73,91,36,5,3430,Male,b63cbc20b61914bd378ae347b8a9a768,same,4,4
1,1,77,56,55,55,15,19,46,37.11,2,10672,Male,b63cbc20b61914bd378ae347b8a9a768,cross,4,1
1,1,78,92,91,19,38,37,73,76.37,1,1296,Male,b63cbc20b61914bd378ae347b8a9a768,cross,3,2
1,1,79,42,46,19,15,19,46,38.18,3,2931,Male,b63cbc20b61914bd378ae347b8a9a768,same,1,1
1,1,80,36,37,55,8,10,73,32.45,4,4562,Male,b63cbc20b61914bd378ae347b8a9a768,same,2,2
1,1,81,16,19,55,9,10,82,28.46,6,1973,Male,b63cbc20b61914bd378ae347b8a9a768,same,2,2
1,1,82,90,82,91,62,64,19,74.22,4,5177,Male,b63cbc20b61914bd378ae347b8a9a768,side,4,3
1,1,83,26,28,55,19,19,82,28.46,6,4381,Male,b63cbc20b61914bd378ae347b8a9a768,same,2,2
1,1,84,75,73,46,3,10,28,65.52,1,3418,Male,b63cbc20b61914bd378ae347b8a9a768,side,3,1
1,1,85,39,37,82,9,10,82,27,6,3532,Male,b63cbc20b61914bd378ae347b8a9a768,same,2,2
1,1,86,56,55,55,10,10,91,57.63,1,2616,Male,b63cbc20b61914bd378ae347b8a9a768,side,4,2
1,1,87,76,73,55,99,91,82,32.45,5,3227,Male,b63cbc20b61914bd378ae347b8a9a768,same,4,4
1,1,88,10,10,91,37,37,64,38.18,2,4908,Male,b63cbc20b61914bd378ae347b8a9a768,same,2,2
1,1,89,74,73,37,88,82,73,37.11,6,3156,Male,b63cbc20b61914bd378ae347b8a9a768,side,3,4
1,1,90,58,55,73,100,91,91,40.25,6,8903,Male,b63cbc20b61914bd378ae347b8a9a768,same,4,4
1,1,91,94,91,37,38,37,73,64.9,3,4769,Male,b63cbc20b61914bd378ae347b8a9a768,cross,3,2
1,1,92,87,82,64,29,28,82,56.92,5,5273,Male,b63cbc20b61914bd378ae347b8a9a768,side,4,2
1,1,93,63,64,28,40,37,91,68.54,4,8306,Male,b63cbc20b61914bd378ae347b8a9a768,cross,3,2
1,1,94,48,46,73,26,28,55,25.46,7,4800,Male,b63cbc20b61914bd378ae347b8a9a768,same,2,2
1,1,95,97,91,64,82,82,19,45.89,6,3399,Male,b63cbc20b61914bd378ae347b8a9a768,side,4,3
1,1,96,80,73,91,59,55,82,20.12,8,2829,Male,b63cbc20b61914bd378ae347b8a9a768,same,4,4
1,1,97,81,82,10,94,91,37,28.46,7,1740,Male,b63cbc20b61914bd378ae347b8a9a768,same,3,3
1,1,98,22,28,19,10,10,91,74.22,2,4808,Male,b63cbc20b61914bd378ae347b8a9a768,side,1,2
1,1,99,81,82,10,64,64,37,32.45,6,3684,Male,b63cbc20b61914bd378ae347b8a9a768,same,3,3
1,2,0,56,55,55,15,19,46,37.11,3,2648,Male,b63cbc20b61914bd378ae347b8a9a768,cross,4,1
1,2,1,26,28,55,48,46,73,25.46,6,1891,Male,b63cbc20b61914bd378ae347b8a9a768,same,2,2
1,2,2,3,10,28,98,91,73,92.66,1,1870,Male,b63cbc20b61914bd378ae347b8a9a768,cross,1,4
1,2,3,30,28,91,51,55,10,85.38,5,3201,Male,b63cbc20b61914bd378ae347b8a9a768,cross,2,3
1,2,4,41,46,10,82,82,19,37.11,5,3139,Male,b63cbc20b61914bd378ae347b8a9a768,side,1,3
1,2,5,88,82,73,60,55,91,32.45,6,1395,Male,b63cbc20b61914bd378ae347b8a9a768,same,4,4
1,2,6,21,28,10,5,10,46,40.25,7,2145,Male,b63cbc20b61914bd378ae347b8a9a768,same,1,1
1,2,7,46,46,55,73,73,28,38.18,6,1356,Male,b63cbc20b61914bd378ae347b8a9a768,cross,2,3
1,2,8,24,28,37,54,55,37,27,6,995,Male,b63cbc20b61914bd378ae347b8a9a768,side,1,3
1,2,9,64,64,37,81,82,10,32.45,8,1370,Male,b63cbc20b61914bd378ae347b8a9a768,same,3,3
1,2,10,55,55,46,8,10,73,52.48,2,1355,Male,b63cbc20b61914bd378ae347b8a9a768,cross,3,2
1,2,11,25,28,46,26,28,55,9,7,1522,Male,b63cbc20b61914bd378ae347b8a9a768,side,1,2
1,2,12,93,91,28,10,10,91,102.62,1,1005,Male,b63cbc20b61914bd378ae347b8a9a768,cross,3,2
1,2,13,87,82,64,86,82,55,9,7,1283,Male,b63cbc20b61914bd378ae347b8a9a768,same,4,4
1,2,14,80,73,91,59,55,82,20.12,7,1838,Male,b63cbc20b61914bd378ae347b8a9a768,same,4,4
1,2,15,37,37,64,10,10,91,38.18,3,1271,Male,b63cbc20b61914bd378ae347b8a9a768,same,2,2
1,2,16,81,82,10,94,91,37,28.46,8,1401,Male,b63cbc20b61914bd378ae347b8a9a768,same,3,3
1,2,17,15,19,46,42,46,19,38.18,3,2338,Male,b63cbc20b61914bd378ae347b8a9a768,same,1,1
1,2,18,77,73,64,43,46,28,45,4,1787,Male,b63cbc20b61914bd378ae347b8a9a768,cross,4,1
1,2,19,99,91,82,22,28,19,89.1,1,1451,Male,b63cbc20b61914bd378ae347b8a9a768,cross,4,1
1,2,20,9,10,82,46,46,55,45,2,1483,Male,b63cbc20b61914bd378ae347b8a9a768,same,2,2
1,2,21,25,28,46,94,91,37,63.64,2,1746,Male,b63cbc20b61914bd378ae347b8a9a768,side,1,3
1,2,22,99,91,82,87,82,64,20.12,7,1279,Male,b63cbc20b61914bd378ae347b8a9a768,same,4,4
1,2,23,10,10,91,7,10,64,27,7,1446,Male,b63cbc20b61914bd378ae347b8a9a768,same,2,2
1,2,24,85,82,46,1,10,10,80.5,1,1129,Male,b63cbc20b61914bd378ae347b8a9a768,side,3,1
1,2,25,85,82,46,8,10,73,76.9,1,1093,Male,b63cbc20b61914bd378ae347b8a9a768,cross,3,2
1,2,26,19,19,82,26,28,55,28.46,7,1172,Male,b63cbc20b61914bd378ae347b8a9a768,same,2,2
1,2,27,93,91,28,85,82,46,20.12,8,1235,Male,b63cbc20b61914bd378ae347b8a9a768,same,3,3
1,2,28,35,37,46,3,10,28,32.45,7,1110,Male,b63cbc20b61914bd378ae347b8a9a768,same,1,1
1,2,29,8,10,73,96,91,55,82.98,1,917,Male,b63cbc20b61914bd378ae347b8a9a768,side,2,4
1,2,30,88,82,73,74,73,37,37.11,7,1165,Male,b63cbc20b61914bd378ae347b8a9a768,side,4,3
1,2,31,96,91,55,57,55,64,37.11,5,2033,Male,b63cbc20b61914bd378ae347b8a9a768,same,4,4
1,2,32,89,82,82,82,82,19,63,6,2347,Male,b63cbc20b61914bd378ae347b8a9a768,side,4,3
1,2,33,9,10,82,39,37,82,27,3,1236,Male,b63cbc20b61914bd378ae347b8a9a768,same,2,2
1,2,34,14,19,37,23,28,28,12.73,7,2501,Male,b63cbc20b61914bd378ae347b8a9a768,same,1,1
1,2,35,45,46,46,4,10,37,37.11,4,2390,Male,b63cbc20b61914bd378ae347b8a9a768,same,1,1
1,2,36,10,10,91,22,28,19,74.22,5,2113,Male,b63cbc20b61914bd378ae347b8a9a768,side,2,1
1,2,37,6,10,55,66,64,55,54,2,2179,Male,b63cbc20b61914bd378ae347b8a9a768,side,2,4
1,2,38,8,10,73,36,37,55,32.45,2,1650,Male,b63cbc20b61914bd378ae347b8a9a768,same,2,2
1,2,39,73,73,28,31,37,10,40.25,3,1188,Male,b63cbc20b61914bd378ae347b8a9a768,side,3,1
1,2,40,93,91,28,97,91,64,36,7,1301,Male,b63cbc20b61914bd378ae347b8a9a768,side,3,4
1,2,41,16,19,55,9,10,82,28.46,7,2469,Male,b63cbc20b61914bd378ae347b8a9a768,same,2,2
1,2,42,10,10,91,4,10,37,54,6,3013,Male,b63cbc20b61914bd378ae347b8a9a768,side,2,1
1,2,43,38,37,73,65,64,46,38.18,6,2324,Male,b63cbc20b61914bd378ae347b8a9a768,cross,2,3
1,2,44,94,91,37,38,37,73,64.9,1,1017,Male,b63cbc20b61914bd378ae347b8a9a768,cross,3,2
1,2,45,63,64,28,91,91,10,32.45,3,1789,Male,b63cbc20b61914bd378ae347b8a9a768,same,3,3
1,2,46,76,73,55,99,91,82,32.45,4,2072,Male,b63cbc20b61914bd378ae347b8a9a768,same,4,4
1,2,47,82,82,19,99,91,82,63.64,5,3145,Male,b63cbc20b61914bd378ae347b8a9a768,side,3,4
1,2,48,97,91,64,15,19,46,74.22,1,1422,Male,b63cbc20b61914bd378ae347b8a9a768,cross,4,1
1,2,49,16,19,55,68,64,73,48.47,1,2396,Male,b63cbc20b61914bd378ae347b8a9a768,side,2,4
1,2,50,92,91,19,38,37,73,76.37,1,901,Male,b63cbc20b61914bd378ae347b8a9a768,cross,3,2
1,2,51,6,10,55,98,91,73,82.98,1,1363,Male,b63cbc20b61914bd378ae347b8a9a768,side,2,4
1,2,52,23,28,28,44,46,37,20.12,2,1134,Male,b63cbc20b61914bd378ae347b8a9a768,same,1,1
1,2,53,90,82,91,62,64,19,74.22,4,4858,Male,b63cbc20b61914bd378ae347b8a9a768,side,4,3
1,2,54,80,73,91,76,73,55,36,3,2788,Male,b63cbc20b61914bd378ae347b8a9a768,same,4,4
1,2,55,91,91,10,97,91,64,54,3,2167,Male,b63cbc20b61914bd378ae347b8a9a768,side,3,4
1,2,56,62,64,19,100,91,91,76.9,3,4743,Male,b63cbc20b61914bd378ae347b8a9a768,side,3,4
1,2,57,14,19,37,38,37,73,40.25,6,3192,Male,b63cbc20b61914bd378ae347b8a9a768,side,1,2
1,2,58,35,37,46,30,28,91,45.89,5,1523,Male,b63cbc20b61914bd378ae347b8a9a768,side,1,2
1,2,59,82,82,19,27,28,64,70.29,2,2181,Male,b63cbc20b61914bd378ae347b8a9a768,cross,3,2
1,2,60,41,46,10,93,91,28,48.47,3,2629,Male,b63cbc20b61914bd378ae347b8a9a768,side,1,3
1,2,61,40,37,91,63,64,28,68.54,2,1706,Male,b63cbc20b61914bd378ae347b8a9a768,cross,2,3
1,2,62,5,10,46,79,73,82,72.56,1,1019,Male,b63cbc20b61914bd378ae347b8a9a768,cross,1,4
1,2,63,89,82,82,35,37,46,57.63,1,764,Male,b63cbc20b61914bd378ae347b8a9a768,cross,4,1
1,2,64,31,37,10,43,46,28,20.12,6,1727,Male,b63cbc20b61914bd378ae347b8a9a768,same,1,1
1,2,65,71,73,10,92,91,19,20.12,7,1037,Male,b63cbc20b61914bd378ae347b8a9a768,same,3,3
1,2,66,15,19,46,22,28,19,28.46,7,2070,Male,b63cbc20b61914bd378ae347b8a9a768,same,1,1
1,2,67,35,37,46,31,37,10,36,7,1175,Male,b63cbc20b61914bd378ae347b8a9a768,same,1,1
1,2,68,28,28,73,80,73,91,48.47,5,1678,Male,b63cbc20b61914bd378ae347b8a9a768,side,2,4
1,2,69,29,28,82,87,82,64,56.92,4,1428,Male,b63cbc20b61914bd378ae347b8a9a768,side,2,4
1,2,70,58,55,73,100,91,91,40.25,4,2796,Male,b63cbc20b61914bd378ae347b8a9a768,same,4,4
1,2,71,48,46,73,11,19,10,68.54,2,1623,Male,b63cbc20b61914bd378ae347b8a9a768,side,2,1
1,2,72,11,19,10,56,55,55,57.63,1,1245,Male,b63cbc20b61914bd378ae347b8a9a768,cross,1,4
1,2,73,11,19,10,28,28,73,63.64,5,2246,Male,b63cbc20b61914bd378ae347b8a9a768,side,1,2
1,2,74,75,73,46,3,10,28,65.52,1,1018,Male,b63cbc20b61914bd378ae347b8a9a768,side,3,1
1,2,75,82,82,19,45,46,46,45,5,1422,Male,b63cbc20b61914bd378ae347b8a9a768,side,3,1
1,2,76,56,55,55,86,82,55,27,7,1996,Male,b63cbc20b61914bd378ae347b8a9a768,same,4,4
1,2,77,85,82,46,83,82,28,18,7,1286,Male,b63cbc20b61914bd378ae347b8a9a768,same,3,3
1,2,78,38,37,73,60,55,91,25.46,8,1950,Male,b63cbc20b61914bd378ae347b8a9a768,side,2,4
1,2,79,54,55,37,94,91,37,36,5,1365,Male,b63cbc20b61914bd378ae347b8a9a768,same,3,3
1,2,80,15,19,46,93,91,28,74.22,3,2684,Male,b63cbc20b61914bd378ae347b8a9a768,side,1,3
1,2,81,82,82,19,93,91,28,12.73,7,1289,Male,b63cbc20b61914bd378ae347b8a9a768,same,3,3
1,2,82,66,64,55,74,73,37,20.12,8,1095,Male,b63cbc20b61914bd378ae347b8a9a768,side,4,3
1,2,83,33,37,28,86,82,55,52.48,4,1825,Male,b63cbc20b61914bd378ae347b8a9a768,cross,1,4
1,2,84,77,73,64,99,91,82,25.46,6,1173,Male,b63cbc20b61914bd378ae347b8a9a768,same,4,4
1,2,85,60,55,91,21,28,10,85.38,6,1510,Male,b63cbc20b61914bd378ae347b8a9a768,cross,4,1
1,2,86,50,46,91,9,10,82,37.11,2,1918,Male,b63cbc20b61914bd378ae347b8a9a768,same,2,2
1,2,87,20,19,91,5,10,46,45.89,8,1880,Male,b63cbc20b61914bd378ae347b8a9a768,side,2,1
1,2,88,10,10,91,31,37,10,85.38,6,4079,Male,b63cbc20b61914bd378ae347b8a9a768,side,2,1
1,2,89,73,73,28,15,19,46,56.92,1,1073,Male,b63cbc20b61914bd378ae347b8a9a768,side,3,1
1,2,90,56,55,55,10,10,91,57.63,1,862,Male,b63cbc20b61914bd378ae347b8a9a768,side,4,2
1,2,91,33,37,28,4,10,37,28.46,4,2171,Male,b63cbc20b61914bd378ae347b8a9a768,same,1,1
1,2,92,95,91,46,54,55,37,37.11,2,2183,Male,b63cbc20b61914bd378ae347b8a9a768,same,3,3
1,2,93,26,28,55,58,55,73,32.45,3,1940,Male,b63cbc20b61914bd378ae347b8a9a768,side,2,4
1,2,94,41,46,10,46,46,55,45,6,2370,Male,b63cbc20b61914bd378ae347b8a9a768,side,1,2
1,2,95,46,46,55,6,10,55,36,4,3427,Male,b63cbc20b61914bd378ae347b8a9a768,same,2,2
1,2,96,64,64,37,58,55,73,37.11,7,1356,Male,b63cbc20b61914bd378ae347b8a9a768,side,3,4
1,2,97,97,91,64,82,82,19,45.89,7,1456,Male,b63cbc20b61914bd378ae347b8a9a768,side,4,3
1,2,98,53,55,28,94,91,37,37.11,6,2991,Male,b63cbc20b61914bd378ae347b8a9a768,same,3,3
1,2,99,78,73,73,46,46,55,32.45,6,1321,Male,b63cbc20b61914bd378ae347b8a9a768,side,4,2
4,1,0,33,37,28,39,37,82,54,5,7748,Male,ff593857fc2a782627c4b16de5e0117d,side,1,2
4,1,1,49,46,82,80,73,91,28.46,6,4635,Male,ff593857fc2a782627c4b16de5e0117d,side,2,4
4,1,2,77,73,64,24,28,37,52.48,4,3408,Male,ff593857fc2a782627c4b16de5e0117d,cross,4,1
4,1,3,14,19,37,13,19,28,9,7,3410,Male,ff593857fc2a782627c4b16de5e0117d,same,1,1
4,1,4,25,28,46,17,19,64,20.12,7,3791,Male,ff593857fc2a782627c4b16de5e0117d,side,1,2
4,1,5,43,46,28,89,82,82,64.9,5,8368,Male,ff593857fc2a782627c4b16de5e0117d,cross,1,4
4,1,6,74,73,37,77,73,64,27,7,6052,Male,ff593857fc2a782627c4b16de5e0117d,side,3,4
4,1,7,60,55,91,74,73,37,56.92,7,8061,Male,ff593857fc2a782627c4b16de5e0117d,side,4,3
4,1,8,4,10,37,44,46,37,36,7,3682,Male,ff593857fc2a782627c4b16de5e0117d,same,1,1
4,1,9,5,10,46,10,10,91,45,6,4311,Male,ff593857fc2a782627c4b16de5e0117d,side,1,2
4,1,10,21,28,10,84,82,37,60.37,3,16916,Male,ff593857fc2a782627c4b16de5e0117d,side,1,3
4,1,11,87,82,64,55,55,46,32.45,4,4529,Male,ff593857fc2a782627c4b16de5e0117d,side,4,3
4,1,12,32,37,19,9,10,82,68.54,4,6238,Male,ff593857fc2a782627c4b16de5e0117d,side,1,2
4,1,13,65,64,46,19,19,82,57.63,3,2903,Male,ff593857fc2a782627c4b16de5e0117d,cross,3,2
4,1,14,71,73,10,83,82,28,20.12,7,2846,Male,ff593857fc2a782627c4b16de5e0117d,same,3,3
4,1,15,45,46,46,61,64,10,40.25,6,3315,Male,ff593857fc2a782627c4b16de5e0117d,side,1,3
4,1,16,87,82,64,59,55,82,32.45,6,1939,Male,ff593857fc2a782627c4b16de5e0117d,same,4,4
4,1,17,11,19,10,42,46,19,28.46,6,4564,Male,ff593857fc2a782627c4b16de5e0117d,same,1,1
4,1,18,68,64,73,96,91,55,32.45,3,3468,Male,ff593857fc2a782627c4b16de5e0117d,same,4,4
4,1,19,7,10,64,93,91,28,88.64,1,4016,Male,ff593857fc2a782627c4b16de5e0117d,cross,2,3
4,1,20,54,55,37,45,46,46,12.73,8,4417,Male,ff593857fc2a782627c4b16de5e0117d,side,3,1
4,1,21,100,91,91,59,55,82,37.11,7,2343,Male,ff593857fc2a782627c4b16de5e0117d,same,4,4
4,1,22,64,64,37,4,10,37,54,6,2302,Male,ff593857fc2a782627c4b16de5e0117d,side,3,1
4,1,23,46,46,55,74,73,37,32.45,4,3178,Male,ff593857fc2a782627c4b16de5e0117d,cross,2,3
4,1,24,82,82,19,87,82,64,45,7,1955,Male,ff593857fc2a782627c4b16de5e0117d,side,3,4
4,1,25,96,91,55,98,91,73,18,8,2236,Male,ff593857fc2a782627c4b16de5e0117d,same,4,4
4,1,26,30,28,91,41,46,10,82.98,6,3874,Male,ff593857fc2a782627c4b16de5e0117d,side,2,1
4,1,27,23,28,28,86,82,55,60.37,4,2077,Male,ff593857fc2a782627c4b16de5e0117d,cross,1,4
4,1,28,56,55,55,59,55,82,27,8,3350,Male,ff593857fc2a782627c4b16de5e0117d,same,4,4
4,1,29,21,28,10,53,55,28,32.45,5,3583,Male,ff593857fc2a782627c4b16de5e0117d,side,1,3
4,1,30,47,46,64,20,19,91,38.18,3,2851,Male,ff593857fc2a782627c4b16de5e0117d,same,2,2
4,1,31,29,28,82,86,82,55,60.37,4,3825,Male,ff593857fc2a782627c4b16de5e0117d,side,2,4
4,1,32,79,73,82,1,10,10,95.67,2,2767,Male,ff593857fc2a782627c4b16de5e0117d,cross,4,1
4,1,33,35,37,46,60,55,91,48.47,3,1821,Male,ff593857fc2a782627c4b16de5e0117d,cross,1,4
4,1,34,53,55,28,58,55,73,45,7,4728,Male,ff593857fc2a782627c4b16de5e0117d,side,3,4
4,1,35,16,19,55,68,64,73,48.47,5,2541,Male,ff593857fc2a782627c4b16de5e0117d,side,2,4
4,1,36,100,91,91,53,55,28,72.56,2,3085,Male,ff593857fc2a782627c4b16de5e0117d,side,4,3
4,1,37,40,37,91,91,91,10,97.35,1,6371,Male,ff593857fc2a782627c4b16de5e0117d,cross,2,3
4,1,38,97,91,64,48,46,73,45.89,4,2351,Male,ff593857fc2a782627c4b16de5e0117d,side,4,2
4,1,39,42,46,19,4,10,37,40.25,3,2997,Male,ff593857fc2a782627c4b16de5e0117d,same,1,1
4,1,40,93,91,28,37,37,64,64.9,2,1909,Male,ff593857fc2a782627c4b16de5e0117d,cross,3,2
4,1,41,73,73,28,71,73,10,18,8,2224,Male,ff593857fc2a782627c4b16de5e0117d,same,3,3
4,1,42,44,46,37,49,46,82,45,8,2484,Male,ff593857fc2a782627c4b16de5e0117d,side,1,2
4,1,43,92,91,19,52,55,19,36,6,2526,Male,ff593857fc2a782627c4b16de5e0117d,same,3,3
4,1,44,55,55,46,54,55,37,9,8,2651,Male,ff593857fc2a782627c4b16de5e0117d,same,3,3
4,1,45,66,64,55,24,28,37,40.25,6,1665,Male,ff593857fc2a782627c4b16de5e0117d,cross,4,1
4,1,46,64,64,37,92,91,19,32.45,6,2030,Male,ff593857fc2a782627c4b16de5e0117d,same,3,3
4,1,47,10,10,91,30,28,91,18,6,2711,Male,ff593857fc2a782627c4b16de5e0117d,same,2,2
4,1,48,93,91,28,40,37,91,82.98,1,1690,Male,ff593857fc2a782627c4b16de5e0117d,cross,3,2
4,1,49,100,91,91,98,91,73,18,8,1782,Male,ff593857fc2a782627c4b16de5e0117d,same,4,4
4,1,50,16,19,55,37,37,64,20.12,7,2838,Male,ff593857fc2a782627c4b16de5e0117d,same,2,2
4,1,51,43,46,28,92,91,19,45.89,4,2357,Male,ff593857fc2a782627c4b16de5e0117d,side,1,3
4,1,52,56,55,55,61,64,10,45.89,6,3814,Male,ff593857fc2a782627c4b16de5e0117d,side,4,3
4,1,53,79,73,82,18,19,73,54.74,6,1865,Male,ff593857fc2a782627c4b16de5e0117d,side,4,2
4,1,54,31,37,10,69,64,82,76.9,2,2736,Male,ff593857fc2a782627c4b16de5e0117d,cross,1,4
4,1,55,92,91,19,44,46,37,48.47,3,3104,Male,ff593857fc2a782627c4b16de5e0117d,side,3,1
4,1,56,56,55,55,70,64,91,37.11,7,2412,Male,ff593857fc2a782627c4b16de5e0117d,same,4,4
4,1,57,73,73,28,59,55,82,56.92,5,2885,Male,ff593857fc2a782627c4b16de5e0117d,side,3,4
4,1,58,37,37,64,6,10,55,28.46,7,2841,Male,ff593857fc2a782627c4b16de5e0117d,same,2,2
4,1,59,72,73,19,100,91,91,74.22,5,4313,Male,ff593857fc2a782627c4b16de5e0117d,side,3,4
4,1,60,85,82,46,8,10,73,76.9,3,1986,Male,ff593857fc2a782627c4b16de5e0117d,cross,3,2
4,1,61,90,82,91,13,19,28,89.1,2,4722,Male,ff593857fc2a782627c4b16de5e0117d,cross,4,1
4,1,62,70,64,91,16,19,55,57.63,4,1903,Male,ff593857fc2a782627c4b16de5e0117d,side,4,2
4,1,63,5,10,46,82,82,19,76.9,4,2085,Male,ff593857fc2a782627c4b16de5e0117d,side,1,3
4,1,64,20,19,91,34,37,37,56.92,5,2453,Male,ff593857fc2a782627c4b16de5e0117d,side,2,1
4,1,65,53,55,28,95,91,46,40.25,4,2860,Male,ff593857fc2a782627c4b16de5e0117d,same,3,3
4,1,66,12,19,19,44,46,37,32.45,5,3184,Male,ff593857fc2a782627c4b16de5e0117d,same,1,1
4,1,67,75,73,46,71,73,10,36,7,2529,Male,ff593857fc2a782627c4b16de5e0117d,same,3,3
4,1,68,47,46,64,7,10,64,36,6,1952,Male,ff593857fc2a782627c4b16de5e0117d,same,2,2
4,1,69,4,10,37,36,37,55,32.45,6,2512,Male,ff593857fc2a782627c4b16de5e0117d,side,1,2
4,1,70,66,64,55,78,73,73,20.12,8,1700,Male,ff593857fc2a782627c4b16de5e0117d,same,4,4
4,1,71,93,91,28,72,73,19,20.12,7,2094,Male,ff593857fc2a782627c4b16de5e0117d,same,3,3
4,1,72,20,19,91,8,10,73,20.12,7,3257,Male,ff593857fc2a782627c4b16de5e0117d,same,2,2
4,1,73,47,46,64,62,64,19,48.47,6,1804,Male,ff593857fc2a782627c4b16de5e0117d,cross,2,3
4,1,74,59,55,82,77,73,64,25.46,6,2132,Male,ff593857fc2a782627c4b16de5e0117d,same,4,4
4,1,75,41,46,10,22,28,19,20.12,7,1793,Male,ff593857fc2a782627c4b16de5e0117d,same,1,1
4,1,76,91,91,10,74,73,37,32.45,6,2260,Male,ff593857fc2a782627c4b16de5e0117d,same,3,3
4,1,77,57,55,64,6,10,55,45.89,7,2713,Male,ff593857fc2a782627c4b16de5e0117d,side,4,2
4,1,78,63,64,28,40,37,91,68.54,4,2266,Male,ff593857fc2a782627c4b16de5e0117d,cross,3,2
4,1,79,35,37,46,21,28,10,37.11,5,3695,Male,ff593857fc2a782627c4b16de5e0117d,same,1,1
4,1,80,44,46,37,14,19,37,27,7,2414,Male,ff593857fc2a782627c4b16de5e0117d,same,1,1
4,1,81,97,91,64,23,28,28,72.56,2,1977,Male,ff593857fc2a782627c4b16de5e0117d,cross,4,1
4,1,82,10,10,91,86,82,55,80.5,2,2104,Male,ff593857fc2a782627c4b16de5e0117d,side,2,4
4,1,83,98,91,73,10,10,91,82.98,5,2214,Male,ff593857fc2a782627c4b16de5e0117d,side,4,2
4,1,84,17,19,64,2,10,19,45.89,8,1964,Male,ff593857fc2a782627c4b16de5e0117d,side,2,1
4,1,85,10,10,91,38,37,73,32.45,6,1511,Male,ff593857fc2a782627c4b16de5e0117d,same,2,2
4,1,86,6,10,55,46,46,55,36,7,3557,Male,ff593857fc2a782627c4b16de5e0117d,same,2,2
4,1,87,95,91,46,92,91,19,27,8,1711,Male,ff593857fc2a782627c4b16de5e0117d,same,3,3
4,1,88,16,19,55,48,46,73,32.45,7,1756,Male,ff593857fc2a782627c4b16de5e0117d,same,2,2
4,1,89,20,19,91,42,46,19,76.9,3,3132,Male,ff593857fc2a782627c4b16de5e0117d,side,2,1
4,1,90,7,10,64,38,37,73,28.46,6,2800,Male,ff593857fc2a782627c4b16de5e0117d,same,2,2
4,1,91,21,28,10,95,91,46,72.56,1,1927,Male,ff593857fc2a782627c4b16de5e0117d,side,1,3
4,1,92,81,82,10,12,19,19,63.64,5,1891,Male,ff593857fc2a782627c4b16de5e0117d,side,3,1
4,1,93,78,73,73,30,28,91,48.47,4,2256,Male,ff593857fc2a782627c4b16de5e0117d,side,4,2
4,1,94,60,55,91,98,91,73,40.25,5,5898,Male,ff593857fc2a782627c4b16de5e0117d,same,4,4
4,1,95,4,10,37,41,46,10,45,4,2781,Male,ff593857fc2a782627c4b16de5e0117d,same,1,1
4,1,96,41,46,10,99,91,82,84.91,3,3012,Male,ff593857fc2a782627c4b16de5e0117d,cross,1,4
4,1,97,10,10,91,63,64,28,82.98,4,3138,Male,ff593857fc2a782627c4b16de5e0117d,cross,2,3
4,1,98,22,28,19,35,37,46,28.46,7,3531,Male,ff593857fc2a782627c4b16de5e0117d,same,1,1
4,1,99,78,73,73,72,73,19,54,6,2055,Male,ff593857fc2a782627c4b16de5e0117d,side,4,3
4,2,0,77,73,64,24,28,37,52.48,3,14758,Male,ff593857fc2a782627c4b16de5e0117d,cross,4,1
4,2,1,12,19,19,81,82,10,63.64,3,8077,Male,ff593857fc2a782627c4b16de5e0117d,side,1,3
4,2,2,14,19,37,44,46,37,27,6,4805,Male,ff593857fc2a782627c4b16de5e0117d,same,1,1
4,2,3,4,10,37,44,46,37,36,7,2747,Male,ff593857fc2a782627c4b16de5e0117d,same,1,1
4,2,4,53,55,28,95,91,46,40.25,4,2290,Male,ff593857fc2a782627c4b16de5e0117d,same,3,3
4,2,5,16,19,55,37,37,64,20.12,5,2322,Male,ff593857fc2a782627c4b16de5e0117d,same,2,2
4,2,6,71,73,10,83,82,28,20.12,7,1753,Male,ff593857fc2a782627c4b16de5e0117d,same,3,3
4,2,7,23,28,28,86,82,55,60.37,5,1798,Male,ff593857fc2a782627c4b16de5e0117d,cross,1,4
4,2,8,53,55,28,21,28,10,32.45,5,3784,Male,ff593857fc2a782627c4b16de5e0117d,side,3,1
4,2,9,16,19,55,70,64,91,57.63,2,1916,Male,ff593857fc2a782627c4b16de5e0117d,side,2,4
4,2,10,30,28,91,78,73,73,48.47,3,2134,Male,ff593857fc2a782627c4b16de5e0117d,side,2,4
4,2,11,63,64,28,10,10,91,82.98,2,2062,Male,ff593857fc2a782627c4b16de5e0117d,cross,3,2
4,2,12,38,37,73,7,10,64,28.46,7,3222,Male,ff593857fc2a782627c4b16de5e0117d,same,2,2
4,2,13,45,46,46,61,64,10,40.25,5,1938,Male,ff593857fc2a782627c4b16de5e0117d,side,1,3
4,2,14,56,55,55,59,55,82,27,6,2038,Male,ff593857fc2a782627c4b16de5e0117d,same,4,4
4,2,15,20,19,91,47,46,64,38.18,3,3327,Male,ff593857fc2a782627c4b16de5e0117d,same,2,2
4,2,16,5,10,46,82,82,19,76.9,3,2386,Male,ff593857fc2a782627c4b16de5e0117d,side,1,3
4,2,17,7,10,64,47,46,64,36,7,1839,Male,ff593857fc2a782627c4b16de5e0117d,same,2,2
4,2,18,40,37,91,91,91,10,97.35,1,1741,Male,ff593857fc2a782627c4b16de5e0117d,cross,2,3
4,2,19,23,28,28,97,91,64,72.56,2,1577,Male,ff593857fc2a782627c4b16de5e0117d,cross,1,4
4,2,20,95,91,46,92,91,19,27,8,2163,Male,ff593857fc2a782627c4b16de5e0117d,same,3,3
4,2,21,41,46,10,22,28,19,20.12,8,2343,Male,ff593857fc2a782627c4b16de5e0117d,same,1,1
4,2,22,68,64,73,16,19,55,48.47,5,2150,Male,ff593857fc2a782627c4b16de5e0117d,side,4,2
4,2,23,16,19,55,48,46,73,32.45,5,1731,Male,ff593857fc2a782627c4b16de5e0117d,same,2,2
4,2,24,60,55,91,98,91,73,40.25,4,2494,Male,ff593857fc2a782627c4b16de5e0117d,same,4,4
4,2,25,17,19,64,25,28,46,20.12,5,1672,Male,ff593857fc2a782627c4b16de5e0117d,side,2,1
4,2,26,49,46,82,44,46,37,45,6,1799,Male,ff593857fc2a782627c4b16de5e0117d,side,2,1
4,2,27,4,10,37,36,37,55,32.45,6,1288,Male,ff593857fc2a782627c4b16de5e0117d,side,1,2
4,2,28,79,73,82,18,19,73,54.74,5,1958,Male,ff593857fc2a782627c4b16de5e0117d,side,4,2
4,2,29,59,55,82,100,91,91,37.11,4,1776,Male,ff593857fc2a782627c4b16de5e0117d,same,4,4
4,2,30,9,10,82,32,37,19,68.54,3,1738,Male,ff593857fc2a782627c4b16de5e0117d,side,2,1
4,2,31,43,46,28,92,91,19,45.89,2,1496,Male,ff593857fc2a782627c4b16de5e0117d,side,1,3
4,2,32,90,82,91,13,19,28,89.1,1,2712,Male,ff593857fc2a782627c4b16de5e0117d,cross,4,1
4,2,33,63,64,28,40,37,91,68.54,2,1700,Male,ff593857fc2a782627c4b16de5e0117d,cross,3,2
4,2,34,91,91,10,74,73,37,32.45,7,3092,Male,ff593857fc2a782627c4b16de5e0117d,same,3,3
4,2,35,57,55,64,6,10,55,45.89,6,2574,Male,ff593857fc2a782627c4b16de5e0117d,side,4,2
4,2,36,87,82,64,82,82,19,45,7,1623,Male,ff593857fc2a782627c4b16de5e0117d,side,4,3
4,2,37,35,37,46,22,28,19,28.46,7,2027,Male,ff593857fc2a782627c4b16de5e0117d,same,1,1
4,2,38,20,19,91,42,46,19,76.9,6,1204,Male,ff593857fc2a782627c4b16de5e0117d,side,2,1
4,2,39,74,73,37,60,55,91,56.92,5,1832,Male,ff593857fc2a782627c4b16de5e0117d,side,3,4
4,2,40,68,64,73,96,91,55,32.45,6,1696,Male,ff593857fc2a782627c4b16de5e0117d,same,4,4
4,2,41,71,73,10,75,73,46,36,8,1791,Male,ff593857fc2a782627c4b16de5e0117d,same,3,3
4,2,42,61,64,10,56,55,55,45.89,8,1415,Male,ff593857fc2a782627c4b16de5e0117d,side,3,4
4,2,43,73,73,28,59,55,82,56.92,5,2874,Male,ff593857fc2a782627c4b16de5e0117d,side,3,4
4,2,44,98,91,73,96,91,55,18,6,1319,Male,ff593857fc2a782627c4b16de5e0117d,same,4,4
4,2,45,21,28,10,84,82,37,60.37,4,2185,Male,ff593857fc2a782627c4b16de5e0117d,side,1,3
4,2,46,53,55,28,58,55,73,45,5,1691,Male,ff593857fc2a782627c4b16de5e0117d,side,3,4
4,2,47,44,46,37,92,91,19,48.47,5,2009,Male,ff593857fc2a782627c4b16de5e0117d,side,1,3
4,2,48,99,91,82,41,46,10,84.91,3,2269,Male,ff593857fc2a782627c4b16de5e0117d,cross,4,1
4,2,49,35,37,46,60,55,91,48.47,5,3405,Male,ff593857fc2a782627c4b16de5e0117d,cross,1,4
4,2,50,80,73,91,49,46,82,28.46,8,2098,Male,ff593857fc2a782627c4b16de5e0117d,side,4,2
4,2,51,100,91,91,53,55,28,72.56,3,2191,Male,ff593857fc2a782627c4b16de5e0117d,side,4,3
4,2,52,12,19,19,44,46,37,32.45,7,1921,Male,ff593857fc2a782627c4b16de5e0117d,same,1,1
4,2,53,43,46,28,89,82,82,64.9,4,1551,Male,ff593857fc2a782627c4b16de5e0117d,cross,1,4
4,2,54,59,55,82,77,73,64,25.46,7,3522,Male,ff593857fc2a782627c4b16de5e0117d,same,4,4
4,2,55,4,10,37,64,64,37,54,6,2453,Male,ff593857fc2a782627c4b16de5e0117d,side,1,3
4,2,56,19,19,82,65,64,46,57.63,4,1947,Male,ff593857fc2a782627c4b16de5e0117d,cross,2,3
4,2,57,7,10,64,93,91,28,88.64,3,1776,Male,ff593857fc2a782627c4b16de5e0117d,cross,2,3
4,2,58,97,91,64,48,46,73,45.89,5,1734,Male,ff593857fc2a782627c4b16de5e0117d,side,4,2
4,2,59,87,82,64,59,55,82,32.45,4,1624,Male,ff593857fc2a782627c4b16de5e0117d,same,4,4
4,2,60,79,73,82,1,10,10,95.67,1,1537,Male,ff593857fc2a782627c4b16de5e0117d,cross,4,1
4,2,61,4,10,37,42,46,19,40.25,5,2028,Male,ff593857fc2a782627c4b16de5e0117d,same,1,1
4,2,62,33,37,28,39,37,82,54,5,2318,Male,ff593857fc2a782627c4b16de5e0117d,side,1,2
4,2,63,21,28,10,95,91,46,72.56,3,1778,Male,ff593857fc2a782627c4b16de5e0117d,side,1,3
4,2,64,20,19,91,8,10,73,20.12,7,2123,Male,ff593857fc2a782627c4b16de5e0117d,same,2,2
4,2,65,29,28,82,86,82,55,60.37,4,1343,Male,ff593857fc2a782627c4b16de5e0117d,side,2,4
4,2,66,72,73,19,100,91,91,74.22,5,2845,Male,ff593857fc2a782627c4b16de5e0117d,side,3,4
4,2,67,11,19,10,42,46,19,28.46,7,3479,Male,ff593857fc2a782627c4b16de5e0117d,same,1,1
4,2,68,46,46,55,74,73,37,32.45,6,2835,Male,ff593857fc2a782627c4b16de5e0117d,cross,2,3
4,2,69,37,37,64,93,91,28,64.9,3,1657,Male,ff593857fc2a782627c4b16de5e0117d,cross,2,3
4,2,70,100,91,91,98,91,73,18,8,2140,Male,ff593857fc2a782627c4b16de5e0117d,same,4,4
4,2,71,38,37,73,10,10,91,32.45,7,3962,Male,ff593857fc2a782627c4b16de5e0117d,same,2,2
4,2,72,62,64,19,47,46,64,48.47,4,3354,Male,ff593857fc2a782627c4b16de5e0117d,cross,3,2
4,2,73,54,55,37,55,55,46,9,8,3060,Male,ff593857fc2a782627c4b16de5e0117d,same,3,3
4,2,74,31,37,10,69,64,82,76.9,4,2600,Male,ff593857fc2a782627c4b16de5e0117d,cross,1,4
4,2,75,72,73,19,78,73,73,54,5,2591,Male,ff593857fc2a782627c4b16de5e0117d,side,3,4
4,2,76,74,73,37,77,73,64,27,8,2330,Male,ff593857fc2a782627c4b16de5e0117d,side,3,4
4,2,77,37,37,64,6,10,55,28.46,7,2435,Male,ff593857fc2a782627c4b16de5e0117d,same,2,2
4,2,78,2,10,19,17,19,64,45.89,5,2232,Male,ff593857fc2a782627c4b16de5e0117d,side,1,2
4,2,79,72,73,19,93,91,28,20.12,7,2525,Male,ff593857fc2a782627c4b16de5e0117d,same,3,3
4,2,80,21,28,10,35,37,46,37.11,7,1279,Male,ff593857fc2a782627c4b16de5e0117d,same,1,1
4,2,81,85,82,46,8,10,73,76.9,2,1522,Male,ff593857fc2a782627c4b16de5e0117d,cross,3,2
4,2,82,52,55,19,92,91,19,36,4,3506,Male,ff593857fc2a782627c4b16de5e0117d,same,3,3
4,2,83,46,46,55,6,10,55,36,7,4931,Male,ff593857fc2a782627c4b16de5e0117d,same,2,2
4,2,84,98,91,73,10,10,91,82.98,3,1900,Male,ff593857fc2a782627c4b16de5e0117d,side,4,2
4,2,85,20,19,91,34,37,37,56.92,4,1794,Male,ff593857fc2a782627c4b16de5e0117d,side,2,1
4,2,86,55,55,46,87,82,64,32.45,3,2893,Male,ff593857fc2a782627c4b16de5e0117d,side,3,4
4,2,87,10,10,91,86,82,55,80.5,1,2490,Male,ff593857fc2a782627c4b16de5e0117d,side,2,4
4,2,88,93,91,28,40,37,91,82.98,1,1597,Male,ff593857fc2a782627c4b16de5e0117d,cross,3,2
4,2,89,24,28,37,66,64,55,40.25,6,3055,Male,ff593857fc2a782627c4b16de5e0117d,cross,1,4
4,2,90,41,46,10,30,28,91,82.98,2,1519,Male,ff593857fc2a782627c4b16de5e0117d,side,1,2
4,2,91,45,46,46,54,55,37,12.73,8,1773,Male,ff593857fc2a782627c4b16de5e0117d,side,1,3
4,2,92,78,73,73,66,64,55,20.12,7,4134,Male,ff593857fc2a782627c4b16de5e0117d,same,4,4
4,2,93,14,19,37,13,19,28,9,8,1276,Male,ff593857fc2a782627c4b16de5e0117d,same,1,1
4,2,94,10,10,91,5,10,46,45,3,1500,Male,ff593857fc2a782627c4b16de5e0117d,side,2,1
4,2,95,56,55,55,70,64,91,37.11,8,1327,Male,ff593857fc2a782627c4b16de5e0117d,same,4,4
4,2,96,92,91,19,64,64,37,32.45,1,1236,Male,ff593857fc2a782627c4b16de5e0117d,same,3,3
4,2,97,10,10,91,30,28,91,18,8,2097,Male,ff593857fc2a782627c4b16de5e0117d,same,2,2
4,2,98,4,10,37,41,46,10,45,6,1410,Male,ff593857fc2a782627c4b16de5e0117d,same,1,1
4,2,99,71,73,10,73,73,28,18,8,1591,Male,ff593857fc2a782627c4b16de5e0117d,same,3,3
4,1,0,34,37,37,58,55,73,40.25,6,3251,Female,da853a5711f2861c152dc83fc98c3963,cross,1,4
4,1,1,15,19,46,11,19,10,36,6,2488,Female,da853a5711f2861c152dc83fc98c3963,same,1,1
4,1,2,79,73,82,18,19,73,54.74,5,2923,Female,da853a5711f2861c152dc83fc98c3963,side,4,2
4,1,3,31,37,10,3,10,28,32.45,4,4725,Female,da853a5711f2861c152dc83fc98c3963,same,1,1
4,1,4,33,37,28,2,10,19,28.46,5,2723,Female,da853a5711f2861c152dc83fc98c3963,same,1,1
4,1,5,11,19,10,45,46,46,45,3,2201,Female,da853a5711f2861c152dc83fc98c3963,same,1,1
4,1,6,98,91,73,70,64,91,32.45,6,3572,Female,da853a5711f2861c152dc83fc98c3963,same,4,4
4,1,7,83,82,28,67,64,64,40.25,6,3613,Female,da853a5711f2861c152dc83fc98c3963,side,3,4
4,1,8,12,19,19,82,82,19,63,6,3164,Female,da853a5711f2861c152dc83fc98c3963,side,1,3
4,1,9,99,91,82,59,55,82,36,7,4303,Female,da853a5711f2861c152dc83fc98c3963,same,4,4
4,1,10,46,46,55,33,37,28,28.46,6,2396,Female,da853a5711f2861c152dc83fc98c3963,side,2,1
4,1,11,91,91,10,14,19,37,76.9,2,2770,Female,da853a5711f2861c152dc83fc98c3963,side,3,1
4,1,12,91,91,10,49,46,82,84.91,1,2861,Female,da853a5711f2861c152dc83fc98c3963,cross,3,2
4,1,13,83,82,28,81,82,10,18,7,3224,Female,da853a5711f2861c152dc83fc98c3963,same,3,3
4,1,14,48,46,73,16,19,55,32.45,5,3639,Female,da853a5711f2861c152dc83fc98c3963,same,2,2
4,1,15,22,28,19,84,82,37,56.92,5,2963,Female,da853a5711f2861c152dc83fc98c3963,side,1,3
4,1,16,66,64,55,56,55,55,9,8,2429,Female,da853a5711f2861c152dc83fc98c3963,same,4,4
4,1,17,78,73,73,24,28,37,57.63,4,2782,Female,da853a5711f2861c152dc83fc98c3963,cross,4,1
4,1,18,26,28,55,76,73,55,45,6,3175,Female,da853a5711f2861c152dc83fc98c3963,side,2,4
4,1,19,91,91,10,2,10,19,81.5,5,5274,Female,da853a5711f2861c152dc83fc98c3963,side,3,1
4,1,20,79,73,82,46,46,55,38.18,2,2091,Female,da853a5711f2861c152dc83fc98c3963,side,4,2
4,1,21,90,82,91,16,19,55,72.56,1,2491,Female,da853a5711f2861c152dc83fc98c3963,side,4,2
4,1,22,48,46,73,10,10,91,40.25,5,2573,Female,da853a5711f2861c152dc83fc98c3963,same,2,2
4,1,23,96,91,55,70,64,91,45,6,3249,Female,da853a5711f2861c152dc83fc98c3963,same,4,4
4,1,24,91,91,10,29,28,82,95.67,1,2184,Female,da853a5711f2861c152dc83fc98c3963,cross,3,2
4,1,25,61,64,10,40,37,91,85.38,3,3000,Female,da853a5711f2861c152dc83fc98c3963,cross,3,2
4,1,26,63,64,28,99,91,82,60.37,1,3259,Female,da853a5711f2861c152dc83fc98c3963,side,3,4
4,1,27,2,10,19,6,10,55,36,6,3048,Female,da853a5711f2861c152dc83fc98c3963,side,1,2
4,1,28,10,10,91,11,19,10,81.5,6,2790,Female,da853a5711f2861c152dc83fc98c3963,side,2,1
4,1,29,61,64,10,62,64,19,9,7,1711,Female,da853a5711f2861c152dc83fc98c3963,same,3,3
4,1,30,29,28,82,21,28,10,72,6,2584,Female,da853a5711f2861c152dc83fc98c3963,side,2,1
4,1,31,53,55,28,87,82,64,45,3,2629,Female,da853a5711f2861c152dc83fc98c3963,side,3,4
4,1,32,66,64,55,40,37,91,45,4,4269,Female,da853a5711f2861c152dc83fc98c3963,side,4,2
4,1,33,92,91,19,16,19,55,80.5,1,1927,Female,da853a5711f2861c152dc83fc98c3963,cross,3,2
4,1,34,64,64,37,81,82,10,32.45,2,2845,Female,da853a5711f2861c152dc83fc98c3963,same,3,3
4,1,35,86,82,55,81,82,10,45,6,2150,Female,da853a5711f2861c152dc83fc98c3963,side,4,3
4,1,36,27,28,64,80,73,91,52.48,5,2957,Female,da853a5711f2861c152dc83fc98c3963,side,2,4
4,1,37,73,73,28,41,46,10,32.45,6,3238,Female,da853a5711f2861c152dc83fc98c3963,side,3,1
4,1,38,100,91,91,41,46,10,92.66,1,2219,Female,da853a5711f2861c152dc83fc98c3963,cross,4,1
4,1,39,90,82,91,18,19,73,65.52,6,2845,Female,da853a5711f2861c152dc83fc98c3963,side,4,2
4,1,40,34,37,37,15,19,46,20.12,7,1655,Female,da853a5711f2861c152dc83fc98c3963,same,1,1
4,1,41,51,55,10,83,82,28,32.45,5,2374,Female,da853a5711f2861c152dc83fc98c3963,same,3,3
4,1,42,3,10,28,76,73,55,68.54,2,3131,Female,da853a5711f2861c152dc83fc98c3963,cross,1,4
4,1,43,52,55,19,85,82,46,38.18,2,1903,Female,da853a5711f2861c152dc83fc98c3963,same,3,3
4,1,44,72,73,19,38,37,73,64.9,1,1807,Female,da853a5711f2861c152dc83fc98c3963,cross,3,2
4,1,45,43,46,28,49,46,82,54,5,2813,Female,da853a5711f2861c152dc83fc98c3963,side,1,2
4,1,46,18,19,73,99,91,82,72.56,5,2604,Female,da853a5711f2861c152dc83fc98c3963,side,2,4
4,1,47,25,28,46,44,46,37,20.12,7,1913,Female,da853a5711f2861c152dc83fc98c3963,same,1,1
4,1,48,53,55,28,45,46,46,20.12,7,1682,Female,da853a5711f2861c152dc83fc98c3963,side,3,1
4,1,49,43,46,28,90,82,91,72.56,2,3126,Female,da853a5711f2861c152dc83fc98c3963,cross,1,4
4,1,50,2,10,19,32,37,19,27,6,3333,Female,da853a5711f2861c152dc83fc98c3963,same,1,1
4,1,51,27,28,64,65,64,46,40.25,5,2023,Female,da853a5711f2861c152dc83fc98c3963,cross,2,3
4,1,52,61,64,10,65,64,46,36,6,3602,Female,da853a5711f2861c152dc83fc98c3963,same,3,3
4,1,53,47,46,64,28,28,73,20.12,7,2091,Female,da853a5711f2861c152dc83fc98c3963,same,2,2
4,1,54,60,55,91,71,73,10,82.98,4,4226,Female,da853a5711f2861c152dc83fc98c3963,side,4,3
4,1,55,21,28,10,61,64,10,36,6,3514,Female,da853a5711f2861c152dc83fc98c3963,side,1,3
4,1,56,52,55,19,47,46,64,45.89,6,1834,Female,da853a5711f2861c152dc83fc98c3963,cross,3,2
4,1,57,91,91,10,92,91,19,9,5,2651,Female,da853a5711f2861c152dc83fc98c3963,same,3,3
4,1,58,82,82,19,75,73,46,28.46,7,1728,Female,da853a5711f2861c152dc83fc98c3963,same,3,3
4,1,59,2,10,19,69,64,82,82.98,2,2008,Female,da853a5711f2861c152dc83fc98c3963,cross,1,4
4,1,60,53,55,28,90,82,91,68.54,1,1975,Female,da853a5711f2861c152dc83fc98c3963,side,3,4
4,1,61,31,37,10,56,55,55,48.47,3,2353,Female,da853a5711f2861c152dc83fc98c3963,cross,1,4
4,1,62,47,46,64,19,19,82,32.45,5,2575,Female,da853a5711f2861c152dc83fc98c3963,same,2,2
4,1,63,72,73,19,93,91,28,20.12,7,3126,Female,da853a5711f2861c152dc83fc98c3963,same,3,3
4,1,64,88,82,73,79,73,82,12.73,7,1720,Female,da853a5711f2861c152dc83fc98c3963,same,4,4
4,1,65,95,91,46,9,10,82,88.64,3,3634,Female,da853a5711f2861c152dc83fc98c3963,cross,3,2
4,1,66,5,10,46,79,73,82,72.56,1,1361,Female,da853a5711f2861c152dc83fc98c3963,cross,1,4
4,1,67,88,82,73,43,46,28,57.63,1,2314,Female,da853a5711f2861c152dc83fc98c3963,cross,4,1
4,1,68,4,10,37,31,37,10,38.18,3,2710,Female,da853a5711f2861c152dc83fc98c3963,same,1,1
4,1,69,66,64,55,98,91,73,32.45,5,3405,Female,da853a5711f2861c152dc83fc98c3963,same,4,4
4,1,70,33,37,28,16,19,55,32.45,4,2625,Female,da853a5711f2861c152dc83fc98c3963,side,1,2
4,1,71,92,91,19,36,37,55,64.9,2,2964,Female,da853a5711f2861c152dc83fc98c3963,cross,3,2
4,1,72,55,55,46,32,37,19,32.45,4,2632,Female,da853a5711f2861c152dc83fc98c3963,side,3,1
4,1,73,38,37,73,61,64,10,68.54,3,2334,Female,da853a5711f2861c152dc83fc98c3963,cross,2,3
4,1,74,32,37,19,75,73,46,45,3,1540,Female,da853a5711f2861c152dc83fc98c3963,side,1,3
4,1,75,9,10,82,50,46,91,37.11,6,2611,Female,da853a5711f2861c152dc83fc98c3963,same,2,2
4,1,76,99,91,82,57,55,64,40.25,5,2337,Female,da853a5711f2861c152dc83fc98c3963,same,4,4
4,1,77,13,19,28,15,19,46,18,7,1697,Female,da853a5711f2861c152dc83fc98c3963,same,1,1
4,1,78,18,19,73,29,28,82,12.73,7,2577,Female,da853a5711f2861c152dc83fc98c3963,same,2,2
4,1,79,44,46,37,40,37,91,54.74,6,2602,Female,da853a5711f2861c152dc83fc98c3963,side,1,2
4,1,80,46,46,55,17,19,64,28.46,6,3299,Female,da853a5711f2861c152dc83fc98c3963,same,2,2
4,1,81,86,82,55,98,91,73,20.12,6,2004,Female,da853a5711f2861c152dc83fc98c3963,same,4,4
4,1,82,88,82,73,14,19,37,72.56,3,5469,Female,da853a5711f2861c152dc83fc98c3963,cross,4,1
4,1,83,86,82,55,57,55,64,28.46,6,2719,Female,da853a5711f2861c152dc83fc98c3963,same,4,4
4,1,84,70,64,91,62,64,19,72,5,1898,Female,da853a5711f2861c152dc83fc98c3963,side,4,3
4,1,85,55,55,46,81,82,10,45,2,2506,Female,da853a5711f2861c152dc83fc98c3963,same,3,3
4,1,86,12,19,19,47,46,64,52.48,1,1922,Female,da853a5711f2861c152dc83fc98c3963,side,1,2
4,1,87,2,10,19,73,73,28,63.64,6,2837,Female,da853a5711f2861c152dc83fc98c3963,side,1,3
4,1,88,5,10,46,32,37,19,38.18,2,2671,Female,da853a5711f2861c152dc83fc98c3963,same,1,1
4,1,89,66,64,55,94,91,37,32.45,3,2964,Female,da853a5711f2861c152dc83fc98c3963,side,4,3
4,1,90,18,19,73,4,10,37,37.11,6,2505,Female,da853a5711f2861c152dc83fc98c3963,side,2,1
4,1,91,6,10,55,38,37,73,32.45,6,2634,Female,da853a5711f2861c152dc83fc98c3963,same,2,2
4,1,92,78,73,73,28,28,73,45,5,2808,Female,da853a5711f2861c152dc83fc98c3963,side,4,2
4,1,93,38,37,73,37,37,64,9,7,1923,Female,da853a5711f2861c152dc83fc98c3963,same,2,2
4,1,94,60,55,91,29,28,82,28.46,6,2918,Female,da853a5711f2861c152dc83fc98c3963,side,4,2
4,1,95,36,37,55,39,37,82,27,6,3074,Female,da853a5711f2861c152dc83fc98c3963,same,2,2
4,1,96,96,91,55,66,64,55,27,5,2112,Female,da853a5711f2861c152dc83fc98c3963,same,4,4
4,1,97,58,55,73,93,91,28,57.63,1,1864,Female,da853a5711f2861c152dc83fc98c3963,side,4,3
4,1,98,85,82,46,67,64,64,25.46,7,2067,Female,da853a5711f2861c152dc83fc98c3963,side,3,4
4,1,99,34,37,37,49,46,82,45.89,6,2523,Female,da853a5711f2861c152dc83fc98c3963,side,1,2
4,2,0,16,19,55,48,46,73,32.45,7,6119,Female,da853a5711f2861c152dc83fc98c3963,same,2,2
4,2,1,91,91,10,14,19,37,76.9,1,5522,Female,da853a5711f2861c152dc83fc98c3963,side,3,1
4,2,2,47,46,64,52,55,19,45.89,6,2641,Female,da853a5711f2861c152dc83fc98c3963,cross,2,3
4,2,3,84,82,37,22,28,19,56.92,3,5079,Female,da853a5711f2861c152dc83fc98c3963,side,3,1
4,2,4,86,82,55,98,91,73,20.12,8,2466,Female,da853a5711f2861c152dc83fc98c3963,same,4,4
4,2,5,43,46,28,90,82,91,72.56,4,3064,Female,da853a5711f2861c152dc83fc98c3963,cross,1,4
4,2,6,95,91,46,9,10,82,88.64,1,3771,Female,da853a5711f2861c152dc83fc98c3963,cross,3,2
4,2,7,56,55,55,66,64,55,9,8,1821,Female,da853a5711f2861c152dc83fc98c3963,same,4,4
4,2,8,58,55,73,93,91,28,57.63,3,4213,Female,da853a5711f2861c152dc83fc98c3963,side,4,3
4,2,9,33,37,28,46,46,55,28.46,5,3997,Female,da853a5711f2861c152dc83fc98c3963,side,1,2
4,2,10,73,73,28,2,10,19,63.64,2,4134,Female,da853a5711f2861c152dc83fc98c3963,side,3,1
4,2,11,70,64,91,96,91,55,45,6,2327,Female,da853a5711f2861c152dc83fc98c3963,same,4,4
4,2,12,65,64,46,61,64,10,36,7,3008,Female,da853a5711f2861c152dc83fc98c3963,same,3,3
4,2,13,19,19,82,47,46,64,32.45,5,2750,Female,da853a5711f2861c152dc83fc98c3963,same,2,2
4,2,14,90,82,91,18,19,73,65.52,5,5442,Female,da853a5711f2861c152dc83fc98c3963,side,4,2
4,2,15,72,73,19,93,91,28,20.12,7,1891,Female,da853a5711f2861c152dc83fc98c3963,same,3,3
4,2,16,88,82,73,43,46,28,57.63,4,4490,Female,da853a5711f2861c152dc83fc98c3963,cross,4,1
4,2,17,5,10,46,32,37,19,38.18,4,3053,Female,da853a5711f2861c152dc83fc98c3963,same,1,1
4,2,18,27,28,64,65,64,46,40.25,3,3663,Female,da853a5711f2861c152dc83fc98c3963,cross,2,3
4,2,19,67,64,64,83,82,28,40.25,6,2986,Female,da853a5711f2861c152dc83fc98c3963,side,4,3
4,2,20,4,10,37,18,19,73,37.11,7,3006,Female,da853a5711f2861c152dc83fc98c3963,side,1,2
4,2,21,36,37,55,39,37,82,27,7,2256,Female,da853a5711f2861c152dc83fc98c3963,same,2,2
4,2,22,76,73,55,26,28,55,45,6,2456,Female,da853a5711f2861c152dc83fc98c3963,side,4,2
4,2,23,90,82,91,16,19,55,72.56,2,3048,Female,da853a5711f2861c152dc83fc98c3963,side,4,2
4,2,24,66,64,55,96,91,55,27,5,2749,Female,da853a5711f2861c152dc83fc98c3963,same,4,4
4,2,25,29,28,82,60,55,91,28.46,5,2309,Female,da853a5711f2861c152dc83fc98c3963,side,2,4
4,2,26,99,91,82,57,55,64,40.25,4,2351,Female,da853a5711f2861c152dc83fc98c3963,same,4,4
4,2,27,32,37,19,2,10,19,27,6,2164,Female,da853a5711f2861c152dc83fc98c3963,same,1,1
4,2,28,62,64,19,61,64,10,9,8,2572,Female,da853a5711f2861c152dc83fc98c3963,same,3,3
4,2,29,87,82,64,53,55,28,45,6,2307,Female,da853a5711f2861c152dc83fc98c3963,side,4,3
4,2,30,60,55,91,71,73,10,82.98,3,1876,Female,da853a5711f2861c152dc83fc98c3963,side,4,3
4,2,31,100,91,91,41,46,10,92.66,1,2714,Female,da853a5711f2861c152dc83fc98c3963,cross,4,1
4,2,32,49,46,82,43,46,28,54,5,2665,Female,da853a5711f2861c152dc83fc98c3963,side,2,1
4,2,33,59,55,82,99,91,82,36,6,2420,Female,da853a5711f2861c152dc83fc98c3963,same,4,4
4,2,34,41,46,10,73,73,28,32.45,7,1625,Female,da853a5711f2861c152dc83fc98c3963,side,1,3
4,2,35,79,73,82,88,82,73,12.73,8,2019,Female,da853a5711f2861c152dc83fc98c3963,same,4,4
4,2,36,27,28,64,80,73,91,52.48,5,2312,Female,da853a5711f2861c152dc83fc98c3963,side,2,4
4,2,37,25,28,46,44,46,37,20.12,6,2451,Female,da853a5711f2861c152dc83fc98c3963,same,1,1
4,2,38,44,46,37,40,37,91,54.74,6,2528,Female,da853a5711f2861c152dc83fc98c3963,side,1,2
4,2,39,67,64,64,85,82,46,25.46,7,2826,Female,da853a5711f2861c152dc83fc98c3963,side,4,3
4,2,40,91,91,10,29,28,82,95.67,1,1671,Female,da853a5711f2861c152dc83fc98c3963,cross,3,2
4,2,41,49,46,82,91,91,10,84.91,2,2679,Female,da853a5711f2861c152dc83fc98c3963,cross,2,3
4,2,42,33,37,28,2,10,19,28.46,5,3911,Female,da853a5711f2861c152dc83fc98c3963,same,1,1
4,2,43,3,10,28,31,37,10,32.45,7,4001,Female,da853a5711f2861c152dc83fc98c3963,same,1,1
4,2,44,36,37,55,92,91,19,64.9,3,2555,Female,da853a5711f2861c152dc83fc98c3963,cross,2,3
4,2,45,79,73,82,46,46,55,38.18,7,1828,Female,da853a5711f2861c152dc83fc98c3963,side,4,2
4,2,46,70,64,91,62,64,19,72,6,2205,Female,da853a5711f2861c152dc83fc98c3963,side,4,3
4,2,47,24,28,37,78,73,73,57.63,4,1856,Female,da853a5711f2861c152dc83fc98c3963,cross,1,4
4,2,48,11,19,10,10,10,91,81.5,7,1832,Female,da853a5711f2861c152dc83fc98c3963,side,1,2
4,2,49,64,64,37,81,82,10,32.45,7,2031,Female,da853a5711f2861c152dc83fc98c3963,same,3,3
4,2,50,9,10,82,50,46,91,37.11,6,1856,Female,da853a5711f2861c152dc83fc98c3963,same,2,2
4,2,51,83,82,28,81,82,10,18,8,2248,Female,da853a5711f2861c152dc83fc98c3963,same,3,3
4,2,52,34,37,37,58,55,73,40.25,7,1812,Female,da853a5711f2861c152dc83fc98c3963,cross,1,4
4,2,53,32,37,19,75,73,46,45,6,1969,Female,da853a5711f2861c152dc83fc98c3963,side,1,3
4,2,54,15,19,46,13,19,28,18,7,1827,Female,da853a5711f2861c152dc83fc98c3963,same,1,1
4,2,55,2,10,19,69,64,82,82.98,3,1648,Female,da853a5711f2861c152dc83fc98c3963,cross,1,4
4,2,56,83,82,28,51,55,10,32.45,6,2159,Female,da853a5711f2861c152dc83fc98c3963,same,3,3
4,2,57,18,19,73,79,73,82,54.74,5,2982,Female,da853a5711f2861c152dc83fc98c3963,side,2,4
4,2,58,12,19,19,47,46,64,52.48,4,2071,Female,da853a5711f2861c152dc83fc98c3963,side,1,2
4,2,59,53,55,28,45,46,46,20.12,7,1784,Female,da853a5711f2861c152dc83fc98c3963,side,3,1
4,2,60,34,37,37,49,46,82,45.89,6,1369,Female,da853a5711f2861c152dc83fc98c3963,side,1,2
4,2,61,31,37,10,56,55,55,48.47,6,2335,Female,da853a5711f2861c152dc83fc98c3963,cross,1,4
4,2,62,38,37,73,37,37,64,9,8,1421,Female,da853a5711f2861c152dc83fc98c3963,same,2,2
4,2,63,18,19,73,99,91,82,72.56,5,2310,Female,da853a5711f2861c152dc83fc98c3963,side,2,4
4,2,64,2,10,19,91,91,10,81.5,4,3112,Female,da853a5711f2861c152dc83fc98c3963,side,1,3
4,2,65,79,73,82,5,10,46,72.56,3,2685,Female,da853a5711f2861c152dc83fc98c3963,cross,4,1
4,2,66,11,19,10,15,19,46,36,7,1872,Female,da853a5711f2861c152dc83fc98c3963,same,1,1
4,2,67,11,19,10,45,46,46,45,4,4094,Female,da853a5711f2861c152dc83fc98c3963,same,1,1
4,2,68,33,37,28,16,19,55,32.45,6,1802,Female,da853a5711f2861c152dc83fc98c3963,side,1,2
4,2,69,82,82,19,12,19,19,63,5,3577,Female,da853a5711f2861c152dc83fc98c3963,side,3,1
4,2,70,76,73,55,3,10,28,68.54,4,1817,Female,da853a5711f2861c152dc83fc98c3963,cross,4,1
4,2,71,38,37,73,72,73,19,64.9,2,2186,Female,da853a5711f2861c152dc83fc98c3963,cross,2,3
4,2,72,66,64,55,40,37,91,45,4,2542,Female,da853a5711f2861c152dc83fc98c3963,side,4,2
4,2,73,94,91,37,66,64,55,32.45,6,2414,Female,da853a5711f2861c152dc83fc98c3963,side,3,4
4,2,74,4,10,37,31,37,10,38.18,5,1944,Female,da853a5711f2861c152dc83fc98c3963,same,1,1
4,2,75,14,19,37,88,82,73,72.56,4,1658,Female,da853a5711f2861c152dc83fc98c3963,cross,1,4
4,2,76,92,91,19,91,91,10,9,8,1750,Female,da853a5711f2861c152dc83fc98c3963,same,3,3
4,2,77,53,55,28,90,82,91,68.54,5,2916,Female,da853a5711f2861c152dc83fc98c3963,side,3,4
4,2,78,21,28,10,61,64,10,36,5,2742,Female,da853a5711f2861c152dc83fc98c3963,side,1,3
4,2,79,10,10,91,48,46,73,40.25,5,4550,Female,da853a5711f2861c152dc83fc98c3963,same,2,2
4,2,80,78,73,73,28,28,73,45,6,2291,Female,da853a5711f2861c152dc83fc98c3963,side,4,2
4,2,81,29,28,82,21,28,10,72,6,3106,Female,da853a5711f2861c152dc83fc98c3963,side,2,1
4,2,82,52,55,19,85,82,46,38.18,5,1311,Female,da853a5711f2861c152dc83fc98c3963,same,3,3
4,2,83,28,28,73,47,46,64,20.12,6,1650,Female,da853a5711f2861c152dc83fc98c3963,same,2,2
4,2,84,82,82,19,75,73,46,28.46,7,1760,Female,da853a5711f2861c152dc83fc98c3963,same,3,3
4,2,85,55,55,46,81,82,10,45,7,2097,Female,da853a5711f2861c152dc83fc98c3963,same,3,3
4,2,86,86,82,55,81,82,10,45,7,1311,Female,da853a5711f2861c152dc83fc98c3963,side,4,3
4,2,87,98,91,73,66,64,55,32.45,5,3645,Female,da853a5711f2861c152dc83fc98c3963,same,4,4
4,2,88,98,91,73,70,64,91,32.45,6,2425,Female,da853a5711f2861c152dc83fc98c3963,same,4,4
4,2,89,40,37,91,61,64,10,85.38,6,1676,Female,da853a5711f2861c152dc83fc98c3963,cross,2,3
4,2,90,61,64,10,38,37,73,68.54,6,1570,Female,da853a5711f2861c152dc83fc98c3963,cross,3,2
4,2,91,2,10,19,6,10,55,36,6,1472,Female,da853a5711f2861c152dc83fc98c3963,side,1,2
4,2,92,99,91,82,63,64,28,60.37,3,1823,Female,da853a5711f2861c152dc83fc98c3963,side,4,3
4,2,93,57,55,64,86,82,55,28.46,6,2337,Female,da853a5711f2861c152dc83fc98c3963,same,4,4
4,2,94,17,19,64,46,46,55,28.46,5,1814,Female,da853a5711f2861c152dc83fc98c3963,same,2,2
4,2,95,55,55,46,32,37,19,32.45,7,2100,Female,da853a5711f2861c152dc83fc98c3963,side,3,1
4,2,96,34,37,37,15,19,46,20.12,8,2220,Female,da853a5711f2861c152dc83fc98c3963,same,1,1
4,2,97,29,28,82,18,19,73,12.73,8,1264,Female,da853a5711f2861c152dc83fc98c3963,same,2,2
4,2,98,38,37,73,6,10,55,32.45,7,1397,Female,da853a5711f2861c152dc83fc98c3963,same,2,2
4,2,99,16,19,55,92,91,19,80.5,2,2024,Female,da853a5711f2861c152dc83fc98c3963,cross,2,3
1,1,0,83,82,28,62,64,19,20.12,7,2790,Male,5dfcc313c0f3802f03b5debc61e57c53,same,3,3
1,1,1,56,55,55,60,55,91,36,8,1325,Male,5dfcc313c0f3802f03b5debc61e57c53,same,4,4
1,1,2,90,82,91,35,37,46,63.64,2,2255,Male,5dfcc313c0f3802f03b5debc61e57c53,cross,4,1
1,1,3,95,91,46,39,37,82,64.9,3,1971,Male,5dfcc313c0f3802f03b5debc61e57c53,cross,3,2
1,1,4,50,46,91,17,19,64,38.18,3,2472,Male,5dfcc313c0f3802f03b5debc61e57c53,same,2,2
1,1,5,1,10,10,86,82,55,84.91,1,1471,Male,5dfcc313c0f3802f03b5debc61e57c53,cross,1,4
1,1,6,76,73,55,18,19,73,56.92,3,2446,Male,5dfcc313c0f3802f03b5debc61e57c53,side,4,2
1,1,7,20,19,91,22,28,19,72.56,4,2231,Male,5dfcc313c0f3802f03b5debc61e57c53,side,2,1
1,1,8,39,37,82,26,28,55,28.46,4,2312,Male,5dfcc313c0f3802f03b5debc61e57c53,same,2,2
1,1,9,68,64,73,52,55,19,54.74,5,3176,Male,5dfcc313c0f3802f03b5debc61e57c53,side,4,3
1,1,10,98,91,73,66,64,55,32.45,4,2515,Male,5dfcc313c0f3802f03b5debc61e57c53,same,4,4
1,1,11,45,46,46,18,19,73,38.18,3,1894,Male,5dfcc313c0f3802f03b5debc61e57c53,side,1,2
1,1,12,36,37,55,88,82,73,48.47,3,2427,Male,5dfcc313c0f3802f03b5debc61e57c53,side,2,4
1,1,13,32,37,19,12,19,19,18,5,2645,Male,5dfcc313c0f3802f03b5debc61e57c53,same,1,1
1,1,14,84,82,37,92,91,19,20.12,4,2829,Male,5dfcc313c0f3802f03b5debc61e57c53,same,3,3
1,1,15,26,28,55,36,37,55,9,7,2043,Male,5dfcc313c0f3802f03b5debc61e57c53,same,2,2
1,1,16,51,55,10,55,55,46,36,5,2336,Male,5dfcc313c0f3802f03b5debc61e57c53,same,3,3
1,1,17,50,46,91,60,55,91,9,8,3280,Male,5dfcc313c0f3802f03b5debc61e57c53,side,2,4
1,1,18,29,28,82,100,91,91,63.64,2,2007,Male,5dfcc313c0f3802f03b5debc61e57c53,side,2,4
1,1,19,55,55,46,39,37,82,40.25,5,2560,Male,5dfcc313c0f3802f03b5debc61e57c53,cross,3,2
1,1,20,20,19,91,32,37,19,74.22,3,2222,Male,5dfcc313c0f3802f03b5debc61e57c53,side,2,1
1,1,21,10,10,91,50,46,91,36,5,2193,Male,5dfcc313c0f3802f03b5debc61e57c53,same,2,2
1,1,22,53,55,28,56,55,55,27,5,2133,Male,5dfcc313c0f3802f03b5debc61e57c53,side,3,4
1,1,23,84,82,37,10,10,91,90,1,1555,Male,5dfcc313c0f3802f03b5debc61e57c53,cross,3,2
1,1,24,73,73,28,35,37,46,40.25,2,1427,Male,5dfcc313c0f3802f03b5debc61e57c53,side,3,1
1,1,25,95,91,46,40,37,91,70.29,1,1534,Male,5dfcc313c0f3802f03b5debc61e57c53,cross,3,2
1,1,26,55,55,46,72,73,19,32.45,3,2241,Male,5dfcc313c0f3802f03b5debc61e57c53,same,3,3
1,1,27,81,82,10,95,91,46,37.11,4,1766,Male,5dfcc313c0f3802f03b5debc61e57c53,same,3,3
1,1,28,12,19,19,14,19,37,18,5,2810,Male,5dfcc313c0f3802f03b5debc61e57c53,same,1,1
1,1,29,91,91,10,22,28,19,63.64,3,2085,Male,5dfcc313c0f3802f03b5debc61e57c53,side,3,1
1,1,30,61,64,10,59,55,82,72.56,3,2878,Male,5dfcc313c0f3802f03b5debc61e57c53,side,3,4
1,1,31,78,73,73,44,46,37,45,2,1636,Male,5dfcc313c0f3802f03b5debc61e57c53,cross,4,1
1,1,32,3,10,28,80,73,91,89.1,1,1423,Male,5dfcc313c0f3802f03b5debc61e57c53,cross,1,4
1,1,33,20,19,91,26,28,55,37.11,1,2304,Male,5dfcc313c0f3802f03b5debc61e57c53,same,2,2
1,1,34,18,19,73,29,28,82,12.73,4,2519,Male,5dfcc313c0f3802f03b5debc61e57c53,same,2,2
1,1,35,23,28,28,80,73,91,77.42,1,1305,Male,5dfcc313c0f3802f03b5debc61e57c53,cross,1,4
1,1,36,94,91,37,7,10,64,85.38,2,3350,Male,5dfcc313c0f3802f03b5debc61e57c53,cross,3,2
1,1,37,83,82,28,79,73,82,54.74,5,2894,Male,5dfcc313c0f3802f03b5debc61e57c53,side,3,4
1,1,38,95,91,46,4,10,37,81.5,2,2294,Male,5dfcc313c0f3802f03b5debc61e57c53,side,3,1
1,1,39,43,46,28,29,28,82,56.92,2,2064,Male,5dfcc313c0f3802f03b5debc61e57c53,side,1,2
1,1,40,59,55,82,77,73,64,25.46,5,2890,Male,5dfcc313c0f3802f03b5debc61e57c53,same,4,4
1,1,41,93,91,28,26,28,55,68.54,1,1588,Male,5dfcc313c0f3802f03b5debc61e57c53,cross,3,2
1,1,42,100,91,91,98,91,73,18,8,2042,Male,5dfcc313c0f3802f03b5debc61e57c53,same,4,4
1,1,43,87,82,64,53,55,28,45,3,1661,Male,5dfcc313c0f3802f03b5debc61e57c53,side,4,3
1,1,44,38,37,73,24,28,37,37.11,5,2183,Male,5dfcc313c0f3802f03b5debc61e57c53,side,2,1
1,1,45,32,37,19,15,19,46,32.45,4,2580,Male,5dfcc313c0f3802f03b5debc61e57c53,same,1,1
1,1,46,2,10,19,25,28,46,32.45,4,2570,Male,5dfcc313c0f3802f03b5debc61e57c53,same,1,1
1,1,47,61,64,10,46,46,55,48.47,5,1850,Male,5dfcc313c0f3802f03b5debc61e57c53,cross,3,2
1,1,48,21,28,10,45,46,46,40.25,3,1849,Male,5dfcc313c0f3802f03b5debc61e57c53,same,1,1
1,1,49,64,64,37,58,55,73,37.11,4,1611,Male,5dfcc313c0f3802f03b5debc61e57c53,side,3,4
1,1,50,74,73,37,83,82,28,12.73,6,2416,Male,5dfcc313c0f3802f03b5debc61e57c53,same,3,3
1,1,51,82,82,19,47,46,64,57.63,3,2003,Male,5dfcc313c0f3802f03b5debc61e57c53,cross,3,2
1,1,52,100,91,91,66,64,55,45,4,2220,Male,5dfcc313c0f3802f03b5debc61e57c53,same,4,4
1,1,53,98,91,73,29,28,82,63.64,5,1823,Male,5dfcc313c0f3802f03b5debc61e57c53,side,4,2
1,1,54,38,37,73,78,73,73,36,5,2694,Male,5dfcc313c0f3802f03b5debc61e57c53,side,2,4
1,1,55,87,82,64,38,37,73,45.89,4,1513,Male,5dfcc313c0f3802f03b5debc61e57c53,side,4,2
1,1,56,24,28,37,60,55,91,60.37,2,1519,Male,5dfcc313c0f3802f03b5debc61e57c53,cross,1,4
1,1,57,51,55,10,84,82,37,38.18,4,2408,Male,5dfcc313c0f3802f03b5debc61e57c53,same,3,3
1,1,58,51,55,10,71,73,10,18,5,1765,Male,5dfcc313c0f3802f03b5debc61e57c53,same,3,3
1,1,59,87,82,64,98,91,73,12.73,6,1596,Male,5dfcc313c0f3802f03b5debc61e57c53,same,4,4
1,1,60,49,46,82,10,10,91,37.11,4,2839,Male,5dfcc313c0f3802f03b5debc61e57c53,same,2,2
1,1,61,3,10,28,91,91,10,82.98,1,1075,Male,5dfcc313c0f3802f03b5debc61e57c53,side,1,3
1,1,62,87,82,64,59,55,82,32.45,5,1585,Male,5dfcc313c0f3802f03b5debc61e57c53,same,4,4
1,1,63,31,37,10,42,46,19,12.73,6,2249,Male,5dfcc313c0f3802f03b5debc61e57c53,same,1,1
1,1,64,100,91,91,75,73,46,48.47,6,1507,Male,5dfcc313c0f3802f03b5debc61e57c53,side,4,3
1,1,65,68,64,73,11,19,10,77.42,1,1300,Male,5dfcc313c0f3802f03b5debc61e57c53,cross,4,1
1,1,66,41,46,10,7,10,64,64.9,2,2512,Male,5dfcc313c0f3802f03b5debc61e57c53,side,1,2
1,1,67,100,91,91,99,91,82,9,8,1707,Male,5dfcc313c0f3802f03b5debc61e57c53,same,4,4
1,1,68,12,19,19,100,91,91,101.82,1,1379,Male,5dfcc313c0f3802f03b5debc61e57c53,cross,1,4
